File: Example Data/Blank.txt
June 8, 2022   12:07:06
Cyclic Voltammetry
File: blank'
Data Source:  Experiment
Instrument Model:  CHI620D
Ref. Electrode: Ag/AgCl
Header:
Note:

Init E (V) = -0.02
High E (V) = 0
Low E (V) = -1.35
Init P/N = N
Scan Rate (V/s) = 0.1
Segment = 2
Sample Interval (V) = 0.001
Quiet Time (sec) = 2
Sensitivity (A/V) = 1e-5

Segment 1:

Segment 2:

Potential/V, Current/A

-0.020, 7.791e-8
-0.022, 1.023e-7
-0.024, 4.134e-8
-0.026, 8.159e-8
-0.028, 2.008e-7
-0.030, 2.430e-7
-0.032, 1.568e-7
-0.034, 6.911e-8
-0.036, 1.040e-7
-0.038, 2.161e-7
-0.040, 2.555e-7
-0.042, 1.724e-7
-0.044, 8.474e-8
-0.046, 1.120e-7
-0.048, 2.237e-7
-0.050, 2.690e-7
-0.052, 1.835e-7
-0.054, 8.988e-8
-0.056, 1.204e-7
-0.058, 2.329e-7
-0.060, 2.746e-7
-0.062, 1.912e-7
-0.064, 1.002e-7
-0.066, 1.272e-7
-0.068, 2.350e-7
-0.070, 2.818e-7
-0.072, 2.021e-7
-0.074, 1.049e-7
-0.076, 1.296e-7
-0.078, 2.416e-7
-0.080, 2.882e-7
-0.082, 2.064e-7
-0.084, 1.102e-7
-0.086, 1.355e-7
-0.088, 2.448e-7
-0.090, 2.908e-7
-0.092, 2.140e-7
-0.094, 1.175e-7
-0.096, 1.362e-7
-0.098, 2.474e-7
-0.100, 2.978e-7
-0.102, 2.192e-7
-0.104, 1.216e-7
-0.106, 1.410e-7
-0.108, 2.525e-7
-0.110, 3.007e-7
-0.112, 2.222e-7
-0.114, 1.271e-7
-0.116, 1.434e-7
-0.118, 2.510e-7
-0.120, 3.050e-7
-0.122, 2.294e-7
-0.124, 1.298e-7
-0.126, 1.438e-7
-0.128, 2.549e-7
-0.130, 3.093e-7
-0.132, 2.311e-7
-0.134, 1.329e-7
-0.136, 1.488e-7
-0.138, 2.561e-7
-0.140, 3.094e-7
-0.142, 2.374e-7
-0.144, 1.377e-7
-0.146, 1.484e-7
-0.148, 2.562e-7
-0.150, 3.151e-7
-0.152, 2.416e-7
-0.154, 1.379e-7
-0.156, 1.504e-7
-0.158, 2.595e-7
-0.160, 3.150e-7
-0.162, 2.447e-7
-0.164, 1.446e-7
-0.166, 1.531e-7
-0.168, 2.589e-7
-0.170, 3.175e-7
-0.172, 2.517e-7
-0.174, 1.463e-7
-0.176, 1.518e-7
-0.178, 2.621e-7
-0.180, 3.210e-7
-0.182, 2.516e-7
-0.184, 1.494e-7
-0.186, 1.553e-7
-0.188, 2.620e-7
-0.190, 3.222e-7
-0.192, 2.570e-7
-0.194, 1.553e-7
-0.196, 1.543e-7
-0.198, 2.621e-7
-0.200, 3.272e-7
-0.202, 2.610e-7
-0.204, 1.548e-7
-0.206, 1.513e-7
-0.208, 2.628e-7
-0.210, 3.285e-7
-0.212, 2.624e-7
-0.214, 1.597e-7
-0.216, 1.602e-7
-0.218, 2.624e-7
-0.220, 3.290e-7
-0.222, 2.695e-7
-0.224, 1.631e-7
-0.226, 1.580e-7
-0.228, 2.647e-7
-0.230, 3.338e-7
-0.232, 2.710e-7
-0.234, 1.642e-7
-0.236, 1.628e-7
-0.238, 2.656e-7
-0.240, 3.339e-7
-0.242, 2.755e-7
-0.244, 1.704e-7
-0.246, 1.616e-7
-0.248, 2.643e-7
-0.250, 3.376e-7
-0.252, 2.798e-7
-0.254, 1.706e-7
-0.256, 1.621e-7
-0.258, 2.685e-7
-0.260, 3.377e-7
-0.262, 2.806e-7
-0.264, 1.753e-7
-0.266, 1.654e-7
-0.268, 2.660e-7
-0.270, 3.393e-7
-0.272, 2.870e-7
-0.274, 1.799e-7
-0.276, 1.646e-7
-0.278, 2.671e-7
-0.280, 3.450e-7
-0.282, 2.900e-7
-0.284, 1.821e-7
-0.286, 1.687e-7
-0.288, 2.698e-7
-0.290, 3.465e-7
-0.292, 2.935e-7
-0.294, 1.873e-7
-0.296, 1.707e-7
-0.298, 2.682e-7
-0.300, 3.482e-7
-0.302, 2.989e-7
-0.304, 1.883e-7
-0.306, 1.707e-7
-0.308, 2.737e-7
-0.310, 3.503e-7
-0.312, 3.006e-7
-0.314, 1.916e-7
-0.316, 1.756e-7
-0.318, 2.718e-7
-0.320, 3.512e-7
-0.322, 3.070e-7
-0.324, 1.964e-7
-0.326, 1.738e-7
-0.328, 2.723e-7
-0.330, 3.558e-7
-0.332, 3.098e-7
-0.334, 1.973e-7
-0.336, 1.766e-7
-0.338, 2.758e-7
-0.340, 3.554e-7
-0.342, 3.121e-7
-0.344, 2.043e-7
-0.346, 1.800e-7
-0.348, 2.730e-7
-0.350, 3.573e-7
-0.352, 3.184e-7
-0.354, 2.075e-7
-0.356, 1.797e-7
-0.358, 2.758e-7
-0.360, 3.613e-7
-0.362, 3.187e-7
-0.364, 2.100e-7
-0.366, 1.841e-7
-0.368, 2.758e-7
-0.370, 3.614e-7
-0.372, 3.246e-7
-0.374, 2.164e-7
-0.376, 1.848e-7
-0.378, 2.751e-7
-0.380, 3.654e-7
-0.382, 3.286e-7
-0.384, 2.160e-7
-0.386, 1.867e-7
-0.388, 2.789e-7
-0.390, 3.657e-7
-0.392, 3.305e-7
-0.394, 2.224e-7
-0.396, 1.906e-7
-0.398, 2.777e-7
-0.400, 3.677e-7
-0.402, 3.376e-7
-0.404, 2.250e-7
-0.406, 1.897e-7
-0.408, 2.799e-7
-0.410, 3.644e-7
-0.412, 3.367e-7
-0.414, 2.266e-7
-0.416, 1.928e-7
-0.418, 2.813e-7
-0.420, 3.712e-7
-0.422, 3.419e-7
-0.424, 2.343e-7
-0.426, 1.949e-7
-0.428, 2.806e-7
-0.430, 3.750e-7
-0.432, 3.470e-7
-0.434, 2.360e-7
-0.436, 1.948e-7
-0.438, 2.836e-7
-0.440, 3.778e-7
-0.442, 3.481e-7
-0.444, 2.401e-7
-0.446, 2.005e-7
-0.448, 2.838e-7
-0.450, 3.773e-7
-0.452, 3.544e-7
-0.454, 2.450e-7
-0.456, 2.006e-7
-0.458, 2.829e-7
-0.460, 3.822e-7
-0.462, 3.578e-7
-0.464, 2.457e-7
-0.466, 2.033e-7
-0.468, 2.866e-7
-0.470, 3.820e-7
-0.472, 3.607e-7
-0.474, 2.522e-7
-0.476, 2.070e-7
-0.478, 2.855e-7
-0.480, 3.835e-7
-0.482, 3.666e-7
-0.484, 2.550e-7
-0.486, 2.065e-7
-0.488, 2.881e-7
-0.490, 3.870e-7
-0.492, 3.689e-7
-0.494, 2.576e-7
-0.496, 2.111e-7
-0.498, 2.909e-7
-0.500, 3.866e-7
-0.502, 3.722e-7
-0.504, 2.647e-7
-0.506, 2.123e-7
-0.508, 2.895e-7
-0.510, 3.910e-7
-0.512, 3.797e-7
-0.514, 2.661e-7
-0.516, 2.144e-7
-0.518, 2.931e-7
-0.520, 3.944e-7
-0.522, 3.791e-7
-0.524, 2.714e-7
-0.526, 2.194e-7
-0.528, 2.931e-7
-0.530, 3.935e-7
-0.532, 3.835e-7
-0.534, 2.766e-7
-0.536, 2.197e-7
-0.538, 2.926e-7
-0.540, 3.978e-7
-0.542, 3.877e-7
-0.544, 2.780e-7
-0.546, 2.235e-7
-0.548, 2.966e-7
-0.550, 3.982e-7
-0.552, 3.907e-7
-0.554, 2.827e-7
-0.556, 2.280e-7
-0.558, 2.957e-7
-0.560, 3.999e-7
-0.562, 3.965e-7
-0.564, 2.872e-7
-0.566, 2.276e-7
-0.568, 2.987e-7
-0.570, 4.033e-7
-0.572, 3.985e-7
-0.574, 2.892e-7
-0.576, 2.322e-7
-0.578, 3.023e-7
-0.580, 4.034e-7
-0.582, 4.024e-7
-0.584, 2.971e-7
-0.586, 2.341e-7
-0.588, 3.004e-7
-0.590, 4.056e-7
-0.592, 4.076e-7
-0.594, 3.002e-7
-0.596, 2.345e-7
-0.598, 3.037e-7
-0.600, 4.100e-7
-0.602, 4.081e-7
-0.604, 3.045e-7
-0.606, 2.404e-7
-0.608, 3.047e-7
-0.610, 4.097e-7
-0.612, 4.125e-7
-0.614, 3.075e-7
-0.616, 2.381e-7
-0.618, 3.034e-7
-0.620, 4.135e-7
-0.622, 4.174e-7
-0.624, 3.106e-7
-0.626, 2.451e-7
-0.628, 3.080e-7
-0.630, 4.146e-7
-0.632, 4.188e-7
-0.634, 3.156e-7
-0.636, 2.501e-7
-0.638, 3.083e-7
-0.640, 4.146e-7
-0.642, 4.251e-7
-0.644, 3.205e-7
-0.646, 2.490e-7
-0.648, 3.095e-7
-0.650, 4.192e-7
-0.652, 4.287e-7
-0.654, 3.229e-7
-0.656, 2.524e-7
-0.658, 3.138e-7
-0.660, 4.188e-7
-0.662, 4.296e-7
-0.664, 3.290e-7
-0.666, 2.558e-7
-0.668, 3.125e-7
-0.670, 4.209e-7
-0.672, 4.348e-7
-0.674, 3.332e-7
-0.676, 2.567e-7
-0.678, 3.143e-7
-0.680, 4.253e-7
-0.682, 4.365e-7
-0.684, 3.353e-7
-0.686, 2.611e-7
-0.688, 3.180e-7
-0.690, 4.252e-7
-0.692, 4.398e-7
-0.694, 3.406e-7
-0.696, 2.649e-7
-0.698, 3.155e-7
-0.700, 4.282e-7
-0.702, 4.461e-7
-0.704, 3.424e-7
-0.706, 2.661e-7
-0.708, 3.204e-7
-0.710, 4.302e-7
-0.712, 4.466e-7
-0.714, 3.471e-7
-0.716, 2.718e-7
-0.718, 3.230e-7
-0.720, 4.302e-7
-0.722, 4.524e-7
-0.724, 3.529e-7
-0.726, 2.725e-7
-0.728, 3.222e-7
-0.730, 4.342e-7
-0.732, 4.561e-7
-0.734, 3.537e-7
-0.736, 2.759e-7
-0.738, 3.269e-7
-0.740, 4.344e-7
-0.742, 4.568e-7
-0.744, 3.614e-7
-0.746, 2.802e-7
-0.748, 3.256e-7
-0.750, 4.353e-7
-0.752, 4.616e-7
-0.754, 3.671e-7
-0.756, 2.805e-7
-0.758, 3.276e-7
-0.760, 4.402e-7
-0.762, 4.634e-7
-0.764, 3.687e-7
-0.766, 2.855e-7
-0.768, 3.311e-7
-0.770, 4.401e-7
-0.772, 4.665e-7
-0.774, 3.733e-7
-0.776, 2.895e-7
-0.778, 3.303e-7
-0.780, 4.431e-7
-0.782, 4.733e-7
-0.784, 3.776e-7
-0.786, 2.911e-7
-0.788, 3.332e-7
-0.790, 4.451e-7
-0.792, 4.755e-7
-0.794, 3.797e-7
-0.796, 2.975e-7
-0.798, 3.360e-7
-0.800, 4.456e-7
-0.802, 4.782e-7
-0.804, 3.870e-7
-0.806, 2.992e-7
-0.808, 3.362e-7
-0.810, 4.494e-7
-0.812, 4.842e-7
-0.814, 3.900e-7
-0.816, 3.000e-7
-0.818, 3.408e-7
-0.820, 4.459e-7
-0.822, 4.832e-7
-0.824, 3.943e-7
-0.826, 3.064e-7
-0.828, 3.420e-7
-0.830, 4.520e-7
-0.832, 4.897e-7
-0.834, 4.020e-7
-0.836, 3.086e-7
-0.838, 3.427e-7
-0.840, 4.565e-7
-0.842, 4.934e-7
-0.844, 4.045e-7
-0.846, 3.115e-7
-0.848, 3.474e-7
-0.850, 4.593e-7
-0.852, 4.950e-7
-0.854, 4.105e-7
-0.856, 3.179e-7
-0.858, 3.481e-7
-0.860, 4.594e-7
-0.862, 5.022e-7
-0.864, 4.163e-7
-0.866, 3.214e-7
-0.868, 3.513e-7
-0.870, 4.648e-7
-0.872, 5.055e-7
-0.874, 4.189e-7
-0.876, 3.259e-7
-0.878, 3.560e-7
-0.880, 4.660e-7
-0.882, 5.088e-7
-0.884, 4.256e-7
-0.886, 3.319e-7
-0.888, 3.578e-7
-0.890, 4.687e-7
-0.892, 5.147e-7
-0.894, 4.318e-7
-0.896, 3.333e-7
-0.898, 3.611e-7
-0.900, 4.730e-7
-0.902, 5.184e-7
-0.904, 4.353e-7
-0.906, 3.403e-7
-0.908, 3.653e-7
-0.910, 4.744e-7
-0.912, 5.215e-7
-0.914, 4.439e-7
-0.916, 3.446e-7
-0.918, 3.656e-7
-0.920, 4.794e-7
-0.922, 5.315e-7
-0.924, 4.485e-7
-0.926, 3.484e-7
-0.928, 3.713e-7
-0.930, 4.844e-7
-0.932, 5.309e-7
-0.934, 4.524e-7
-0.936, 3.572e-7
-0.938, 3.758e-7
-0.940, 4.854e-7
-0.942, 5.353e-7
-0.944, 4.616e-7
-0.946, 3.607e-7
-0.948, 3.765e-7
-0.950, 4.900e-7
-0.952, 5.440e-7
-0.954, 4.637e-7
-0.956, 3.656e-7
-0.958, 3.831e-7
-0.960, 4.945e-7
-0.962, 5.459e-7
-0.964, 4.716e-7
-0.966, 3.745e-7
-0.968, 3.877e-7
-0.970, 4.963e-7
-0.972, 5.546e-7
-0.974, 4.797e-7
-0.976, 3.777e-7
-0.978, 3.914e-7
-0.980, 5.035e-7
-0.982, 5.607e-7
-0.984, 4.841e-7
-0.986, 3.838e-7
-0.988, 4.000e-7
-0.990, 5.078e-7
-0.992, 5.637e-7
-0.994, 4.938e-7
-0.996, 3.920e-7
-0.998, 4.021e-7
-1.000, 5.122e-7
-1.002, 5.740e-7
-1.004, 5.016e-7
-1.006, 3.959e-7
-1.008, 4.076e-7
-1.010, 5.212e-7
-1.012, 5.788e-7
-1.014, 5.070e-7
-1.016, 4.058e-7
-1.018, 4.160e-7
-1.020, 5.249e-7
-1.022, 5.844e-7
-1.024, 5.125e-7
-1.026, 4.117e-7
-1.028, 4.186e-7
-1.030, 5.306e-7
-1.032, 5.962e-7
-1.034, 5.241e-7
-1.036, 4.199e-7
-1.038, 4.271e-7
-1.040, 5.383e-7
-1.042, 6.009e-7
-1.044, 5.316e-7
-1.046, 4.298e-7
-1.048, 4.355e-7
-1.050, 5.400e-7
-1.052, 6.079e-7
-1.054, 5.440e-7
-1.056, 4.373e-7
-1.058, 4.395e-7
-1.060, 5.502e-7
-1.062, 6.172e-7
-1.064, 5.496e-7
-1.066, 4.432e-7
-1.068, 4.481e-7
-1.070, 5.559e-7
-1.072, 6.220e-7
-1.074, 5.582e-7
-1.076, 4.527e-7
-1.078, 4.532e-7
-1.080, 5.610e-7
-1.082, 6.303e-7
-1.084, 5.678e-7
-1.086, 4.590e-7
-1.088, 4.584e-7
-1.090, 5.692e-7
-1.092, 6.375e-7
-1.094, 5.730e-7
-1.096, 4.676e-7
-1.098, 4.667e-7
-1.100, 5.742e-7
-1.102, 6.421e-7
-1.104, 5.827e-7
-1.106, 4.768e-7
-1.108, 4.703e-7
-1.110, 5.785e-7
-1.112, 6.532e-7
-1.114, 5.897e-7
-1.116, 4.813e-7
-1.118, 4.778e-7
-1.120, 5.861e-7
-1.122, 6.576e-7
-1.124, 5.954e-7
-1.126, 4.919e-7
-1.128, 4.877e-7
-1.130, 5.900e-7
-1.132, 6.641e-7
-1.134, 6.079e-7
-1.136, 4.978e-7
-1.138, 4.894e-7
-1.140, 5.966e-7
-1.142, 6.726e-7
-1.144, 6.135e-7
-1.146, 5.037e-7
-1.148, 4.976e-7
-1.150, 6.036e-7
-1.152, 6.760e-7
-1.154, 6.219e-7
-1.156, 5.140e-7
-1.158, 5.028e-7
-1.160, 6.069e-7
-1.162, 6.851e-7
-1.164, 6.309e-7
-1.166, 5.189e-7
-1.168, 5.085e-7
-1.170, 6.161e-7
-1.172, 6.919e-7
-1.174, 6.359e-7
-1.176, 5.288e-7
-1.178, 5.170e-7
-1.180, 6.202e-7
-1.182, 6.973e-7
-1.184, 6.467e-7
-1.186, 5.382e-7
-1.188, 5.217e-7
-1.190, 6.267e-7
-1.192, 7.080e-7
-1.194, 6.544e-7
-1.196, 5.436e-7
-1.198, 5.311e-7
-1.200, 6.352e-7
-1.202, 7.144e-7
-1.204, 6.613e-7
-1.206, 5.553e-7
-1.208, 5.379e-7
-1.210, 6.379e-7
-1.212, 7.221e-7
-1.214, 6.738e-7
-1.216, 5.620e-7
-1.218, 5.444e-7
-1.220, 6.470e-7
-1.222, 7.311e-7
-1.224, 6.802e-7
-1.226, 5.700e-7
-1.228, 5.540e-7
-1.230, 6.493e-7
-1.232, 7.351e-7
-1.234, 6.911e-7
-1.236, 5.815e-7
-1.238, 5.588e-7
-1.240, 6.603e-7
-1.242, 7.464e-7
-1.244, 7.023e-7
-1.246, 5.888e-7
-1.248, 5.672e-7
-1.250, 6.711e-7
-1.252, 7.539e-7
-1.254, 7.087e-7
-1.256, 6.012e-7
-1.258, 5.778e-7
-1.260, 6.756e-7
-1.262, 7.608e-7
-1.264, 7.220e-7
-1.266, 6.101e-7
-1.268, 5.846e-7
-1.270, 6.850e-7
-1.272, 7.745e-7
-1.274, 7.297e-7
-1.276, 6.183e-7
-1.278, 5.952e-7
-1.280, 6.953e-7
-1.282, 7.816e-7
-1.284, 7.393e-7
-1.286, 6.314e-7
-1.288, 6.049e-7
-1.290, 7.004e-7
-1.292, 7.921e-7
-1.294, 7.551e-7
-1.296, 6.419e-7
-1.298, 6.135e-7
-1.300, 7.120e-7
-1.302, 8.032e-7
-1.304, 7.640e-7
-1.306, 6.521e-7
-1.308, 6.263e-7
-1.310, 7.207e-7
-1.312, 8.103e-7
-1.314, 7.778e-7
-1.316, 6.661e-7
-1.318, 6.333e-7
-1.320, 7.312e-7
-1.322, 8.261e-7
-1.324, 7.907e-7
-1.326, 6.751e-7
-1.328, 6.472e-7
-1.330, 7.446e-7
-1.332, 8.360e-7
-1.334, 8.010e-7
-1.336, 6.933e-7
-1.338, 6.586e-7
-1.340, 7.522e-7
-1.342, 8.480e-7
-1.344, 8.186e-7
-1.346, 7.048e-7
-1.348, 6.691e-7
-1.350, 7.314e-7
-1.348, 5.842e-7
-1.346, 4.723e-7
-1.344, 3.268e-7
-1.342, 2.704e-7
-1.340, 3.432e-7
-1.338, 4.203e-7
-1.336, 3.768e-7
-1.334, 2.536e-7
-1.332, 1.997e-7
-1.330, 2.782e-7
-1.328, 3.655e-7
-1.326, 3.255e-7
-1.324, 2.010e-7
-1.322, 1.547e-7
-1.320, 2.364e-7
-1.318, 3.221e-7
-1.316, 2.852e-7
-1.314, 1.669e-7
-1.312, 1.193e-7
-1.310, 1.974e-7
-1.308, 2.894e-7
-1.306, 2.561e-7
-1.304, 1.349e-7
-1.302, 8.703e-8
-1.300, 1.696e-7
-1.298, 2.618e-7
-1.296, 2.274e-7
-1.294, 1.079e-7
-1.292, 6.304e-8
-1.290, 1.433e-7
-1.288, 2.342e-7
-1.286, 2.047e-7
-1.284, 8.631e-8
-1.282, 3.767e-8
-1.280, 1.194e-7
-1.278, 2.138e-7
-1.276, 1.853e-7
-1.274, 6.475e-8
-1.272, 1.758e-8
-1.270, 9.993e-8
-1.268, 1.918e-7
-1.266, 1.639e-7
-1.264, 4.888e-8
-1.262, -1.181e-9
-1.260, 7.815e-8
-1.258, 1.726e-7
-1.256, 1.502e-7
-1.254, 3.221e-8
-1.252, -2.008e-8
-1.250, 6.187e-8
-1.248, 1.588e-7
-1.246, 1.310e-7
-1.244, 1.673e-8
-1.242, -3.299e-8
-1.240, 4.462e-8
-1.238, 1.394e-7
-1.236, 1.187e-7
-1.234, 4.677e-9
-1.232, -5.025e-8
-1.230, 2.768e-8
-1.228, 1.337e-7
-1.226, 1.067e-7
-1.224, -1.201e-8
-1.222, -6.150e-8
-1.220, 1.629e-8
-1.218, 1.117e-7
-1.216, 9.209e-8
-1.214, -2.100e-8
-1.212, -7.428e-8
-1.210, -5.565e-10
-1.208, 9.965e-8
-1.206, 8.376e-8
-1.204, -3.460e-8
-1.202, -8.756e-8
-1.200, -1.003e-8
-1.198, 8.764e-8
-1.196, 6.940e-8
-1.194, -4.420e-8
-1.192, -9.771e-8
-1.190, -2.387e-8
-1.188, 7.449e-8
-1.186, 6.157e-8
-1.184, -5.224e-8
-1.182, -1.118e-7
-1.180, -3.536e-8
-1.178, 6.774e-8
-1.176, 5.085e-8
-1.174, -6.490e-8
-1.172, -1.196e-7
-1.170, -4.419e-8
-1.168, 5.391e-8
-1.166, 3.957e-8
-1.164, -6.976e-8
-1.162, -1.305e-7
-1.160, -5.809e-8
-1.158, 4.586e-8
-1.156, 3.393e-8
-1.154, -8.029e-8
-1.152, -1.395e-7
-1.150, -6.596e-8
-1.148, 3.675e-8
-1.146, 2.230e-8
-1.144, -8.803e-8
-1.142, -1.462e-7
-1.140, -7.746e-8
-1.138, 2.403e-8
-1.136, 1.710e-8
-1.134, -9.568e-8
-1.132, -1.579e-7
-1.130, -8.665e-8
-1.128, 1.798e-8
-1.126, 5.663e-9
-1.124, -1.065e-7
-1.122, -1.643e-7
-1.120, -9.439e-8
-1.118, 5.721e-9
-1.116, 9.958e-10
-1.114, -1.088e-7
-1.112, -1.743e-7
-1.110, -1.060e-7
-1.108, -7.810e-10
-1.106, -4.296e-9
-1.104, -1.184e-7
-1.102, -1.829e-7
-1.100, -1.109e-7
-1.098, -9.675e-9
-1.096, -1.554e-8
-1.094, -1.229e-7
-1.092, -1.882e-7
-1.090, -1.224e-7
-1.088, -1.788e-8
-1.086, -1.990e-8
-1.084, -1.294e-7
-1.082, -1.979e-7
-1.080, -1.302e-7
-1.078, -2.361e-8
-1.076, -2.885e-8
-1.074, -1.368e-7
-1.072, -2.023e-7
-1.070, -1.376e-7
-1.068, -3.493e-8
-1.066, -3.380e-8
-1.064, -1.415e-7
-1.062, -2.118e-7
-1.060, -1.485e-7
-1.058, -3.838e-8
-1.056, -3.892e-8
-1.054, -1.497e-7
-1.052, -2.175e-7
-1.050, -1.528e-7
-1.048, -4.934e-8
-1.046, -4.715e-8
-1.044, -1.538e-7
-1.042, -2.224e-7
-1.040, -1.637e-7
-1.038, -5.579e-8
-1.036, -5.049e-8
-1.034, -1.614e-7
-1.032, -2.333e-7
-1.030, -1.690e-7
-1.028, -6.299e-8
-1.026, -5.908e-8
-1.024, -1.614e-7
-1.022, -2.331e-7
-1.020, -1.769e-7
-1.018, -7.062e-8
-1.016, -6.244e-8
-1.014, -1.688e-7
-1.012, -2.450e-7
-1.010, -1.853e-7
-1.008, -7.635e-8
-1.006, -6.896e-8
-1.004, -1.754e-7
-1.002, -2.494e-7
-1.000, -1.908e-7
-0.998, -8.393e-8
-0.996, -7.488e-8
-0.994, -1.779e-7
-0.992, -2.544e-7
-0.990, -2.002e-7
-0.988, -8.954e-8
-0.986, -7.766e-8
-0.984, -1.848e-7
-0.982, -2.611e-7
-0.980, -2.041e-7
-0.978, -9.383e-8
-0.976, -8.447e-8
-0.974, -1.880e-7
-0.972, -2.627e-7
-0.970, -2.108e-7
-0.968, -1.033e-7
-0.966, -8.763e-8
-0.964, -1.899e-7
-0.962, -2.707e-7
-0.960, -2.163e-7
-0.958, -1.060e-7
-0.956, -9.188e-8
-0.954, -1.963e-7
-0.952, -2.733e-7
-0.950, -2.206e-7
-0.948, -1.148e-7
-0.946, -9.663e-8
-0.944, -1.956e-7
-0.942, -2.773e-7
-0.940, -2.283e-7
-0.938, -1.165e-7
-0.936, -9.704e-8
-0.934, -2.015e-7
-0.932, -2.842e-7
-0.930, -2.302e-7
-0.928, -1.224e-7
-0.926, -1.043e-7
-0.924, -2.020e-7
-0.922, -2.847e-7
-0.920, -2.406e-7
-0.918, -1.282e-7
-0.916, -1.047e-7
-0.914, -2.049e-7
-0.912, -2.911e-7
-0.910, -2.424e-7
-0.908, -1.310e-7
-0.906, -1.098e-7
-0.904, -2.089e-7
-0.902, -2.916e-7
-0.900, -2.469e-7
-0.898, -1.382e-7
-0.896, -1.126e-7
-0.894, -2.089e-7
-0.892, -2.960e-7
-0.890, -2.530e-7
-0.888, -1.398e-7
-0.886, -1.138e-7
-0.884, -2.137e-7
-0.882, -2.993e-7
-0.880, -2.554e-7
-0.878, -1.467e-7
-0.876, -1.185e-7
-0.874, -2.143e-7
-0.872, -3.009e-7
-0.870, -2.620e-7
-0.868, -1.503e-7
-0.866, -1.195e-7
-0.864, -2.165e-7
-0.862, -3.076e-7
-0.860, -2.649e-7
-0.858, -1.533e-7
-0.856, -1.244e-7
-0.854, -2.195e-7
-0.852, -3.069e-7
-0.850, -2.679e-7
-0.848, -1.594e-7
-0.846, -1.265e-7
-0.844, -2.178e-7
-0.842, -3.128e-7
-0.840, -2.756e-7
-0.838, -1.607e-7
-0.836, -1.278e-7
-0.834, -2.229e-7
-0.832, -3.128e-7
-0.830, -2.767e-7
-0.828, -1.663e-7
-0.826, -1.329e-7
-0.824, -2.224e-7
-0.822, -3.150e-7
-0.820, -2.838e-7
-0.818, -1.647e-7
-0.816, -1.311e-7
-0.814, -2.256e-7
-0.812, -3.186e-7
-0.810, -2.834e-7
-0.808, -1.730e-7
-0.806, -1.371e-7
-0.804, -2.272e-7
-0.802, -3.186e-7
-0.800, -2.891e-7
-0.798, -1.792e-7
-0.796, -1.380e-7
-0.794, -2.266e-7
-0.792, -3.244e-7
-0.790, -2.928e-7
-0.788, -1.782e-7
-0.786, -1.409e-7
-0.784, -2.299e-7
-0.782, -3.240e-7
-0.780, -2.949e-7
-0.778, -1.866e-7
-0.776, -1.428e-7
-0.774, -2.280e-7
-0.772, -3.274e-7
-0.770, -3.011e-7
-0.768, -1.868e-7
-0.766, -1.439e-7
-0.764, -2.311e-7
-0.762, -3.291e-7
-0.760, -3.022e-7
-0.758, -1.916e-7
-0.756, -1.487e-7
-0.754, -2.306e-7
-0.752, -3.274e-7
-0.750, -3.084e-7
-0.748, -1.978e-7
-0.746, -1.478e-7
-0.744, -2.321e-7
-0.742, -3.321e-7
-0.740, -3.102e-7
-0.738, -1.966e-7
-0.736, -1.521e-7
-0.734, -2.351e-7
-0.732, -3.302e-7
-0.730, -3.124e-7
-0.728, -2.050e-7
-0.726, -1.528e-7
-0.724, -2.326e-7
-0.722, -3.342e-7
-0.720, -3.179e-7
-0.718, -2.054e-7
-0.716, -1.570e-7
-0.714, -2.369e-7
-0.712, -3.357e-7
-0.710, -3.171e-7
-0.708, -2.105e-7
-0.706, -1.582e-7
-0.704, -2.342e-7
-0.702, -3.367e-7
-0.700, -3.236e-7
-0.698, -2.132e-7
-0.696, -1.574e-7
-0.694, -2.347e-7
-0.692, -3.397e-7
-0.690, -3.246e-7
-0.688, -2.147e-7
-0.686, -1.627e-7
-0.684, -2.359e-7
-0.682, -3.382e-7
-0.680, -3.279e-7
-0.678, -2.207e-7
-0.676, -1.625e-7
-0.674, -2.347e-7
-0.672, -3.409e-7
-0.670, -3.323e-7
-0.668, -2.205e-7
-0.666, -1.635e-7
-0.664, -2.383e-7
-0.662, -3.409e-7
-0.660, -3.334e-7
-0.658, -2.250e-7
-0.656, -1.670e-7
-0.654, -2.374e-7
-0.652, -3.410e-7
-0.650, -3.380e-7
-0.648, -2.294e-7
-0.646, -1.658e-7
-0.644, -2.381e-7
-0.642, -3.443e-7
-0.640, -3.386e-7
-0.638, -2.309e-7
-0.636, -1.692e-7
-0.634, -2.391e-7
-0.632, -3.435e-7
-0.630, -3.416e-7
-0.628, -2.372e-7
-0.626, -1.712e-7
-0.624, -2.366e-7
-0.622, -3.470e-7
-0.620, -3.461e-7
-0.618, -2.368e-7
-0.616, -1.712e-7
-0.614, -2.325e-7
-0.612, -3.450e-7
-0.610, -3.450e-7
-0.608, -2.405e-7
-0.606, -1.770e-7
-0.604, -2.379e-7
-0.602, -3.452e-7
-0.600, -3.515e-7
-0.598, -2.449e-7
-0.596, -1.754e-7
-0.594, -2.388e-7
-0.592, -3.492e-7
-0.590, -3.530e-7
-0.588, -2.459e-7
-0.586, -1.787e-7
-0.584, -2.411e-7
-0.582, -3.470e-7
-0.580, -3.554e-7
-0.578, -2.513e-7
-0.576, -1.802e-7
-0.574, -2.394e-7
-0.572, -3.496e-7
-0.570, -3.602e-7
-0.568, -2.541e-7
-0.566, -1.806e-7
-0.564, -2.425e-7
-0.562, -3.503e-7
-0.560, -3.601e-7
-0.558, -2.580e-7
-0.556, -1.837e-7
-0.554, -2.404e-7
-0.552, -3.493e-7
-0.550, -3.645e-7
-0.548, -2.628e-7
-0.546, -1.844e-7
-0.544, -2.401e-7
-0.542, -3.530e-7
-0.540, -3.661e-7
-0.538, -2.628e-7
-0.536, -1.885e-7
-0.534, -2.428e-7
-0.532, -3.514e-7
-0.530, -3.670e-7
-0.528, -2.696e-7
-0.526, -1.910e-7
-0.524, -2.404e-7
-0.522, -3.530e-7
-0.520, -3.731e-7
-0.518, -2.701e-7
-0.516, -1.907e-7
-0.514, -2.434e-7
-0.512, -3.568e-7
-0.510, -3.744e-7
-0.508, -2.739e-7
-0.506, -1.960e-7
-0.504, -2.438e-7
-0.502, -3.530e-7
-0.500, -3.770e-7
-0.498, -2.788e-7
-0.496, -1.949e-7
-0.494, -2.432e-7
-0.492, -3.561e-7
-0.490, -3.800e-7
-0.488, -2.798e-7
-0.486, -1.973e-7
-0.484, -2.460e-7
-0.482, -3.564e-7
-0.480, -3.805e-7
-0.478, -2.853e-7
-0.476, -2.015e-7
-0.474, -2.433e-7
-0.472, -3.568e-7
-0.470, -3.851e-7
-0.468, -2.884e-7
-0.466, -2.005e-7
-0.464, -2.455e-7
-0.462, -3.595e-7
-0.460, -3.838e-7
-0.458, -2.898e-7
-0.456, -2.058e-7
-0.454, -2.455e-7
-0.452, -3.575e-7
-0.450, -3.871e-7
-0.448, -2.951e-7
-0.446, -2.071e-7
-0.444, -2.441e-7
-0.442, -3.593e-7
-0.440, -3.912e-7
-0.438, -2.962e-7
-0.436, -2.093e-7
-0.434, -2.470e-7
-0.432, -3.589e-7
-0.430, -3.908e-7
-0.428, -3.005e-7
-0.426, -2.121e-7
-0.424, -2.462e-7
-0.422, -3.581e-7
-0.420, -3.963e-7
-0.418, -3.039e-7
-0.416, -2.115e-7
-0.414, -2.474e-7
-0.412, -3.616e-7
-0.410, -3.943e-7
-0.408, -3.013e-7
-0.406, -2.145e-7
-0.404, -2.486e-7
-0.402, -3.587e-7
-0.400, -3.972e-7
-0.398, -3.114e-7
-0.396, -2.171e-7
-0.394, -2.467e-7
-0.392, -3.614e-7
-0.390, -4.017e-7
-0.388, -3.125e-7
-0.386, -2.181e-7
-0.384, -2.490e-7
-0.382, -3.621e-7
-0.380, -4.009e-7
-0.378, -3.159e-7
-0.376, -2.231e-7
-0.374, -2.480e-7
-0.372, -3.605e-7
-0.370, -4.049e-7
-0.368, -3.201e-7
-0.366, -2.231e-7
-0.364, -2.485e-7
-0.362, -3.636e-7
-0.360, -4.067e-7
-0.358, -3.200e-7
-0.356, -2.264e-7
-0.354, -2.507e-7
-0.352, -3.604e-7
-0.350, -4.073e-7
-0.348, -3.264e-7
-0.346, -2.291e-7
-0.344, -2.490e-7
-0.342, -3.620e-7
-0.340, -4.114e-7
-0.338, -3.283e-7
-0.336, -2.288e-7
-0.334, -2.524e-7
-0.332, -3.634e-7
-0.330, -4.104e-7
-0.328, -3.312e-7
-0.326, -2.329e-7
-0.324, -2.517e-7
-0.322, -3.608e-7
-0.320, -4.137e-7
-0.318, -3.374e-7
-0.316, -2.332e-7
-0.314, -2.501e-7
-0.312, -3.647e-7
-0.310, -4.152e-7
-0.308, -3.361e-7
-0.306, -2.388e-7
-0.304, -2.531e-7
-0.302, -3.638e-7
-0.300, -4.148e-7
-0.298, -3.421e-7
-0.296, -2.409e-7
-0.294, -2.506e-7
-0.292, -3.631e-7
-0.290, -4.191e-7
-0.288, -3.438e-7
-0.286, -2.401e-7
-0.284, -2.527e-7
-0.282, -3.651e-7
-0.280, -4.195e-7
-0.278, -3.452e-7
-0.276, -2.466e-7
-0.274, -2.533e-7
-0.272, -3.617e-7
-0.270, -4.225e-7
-0.268, -3.511e-7
-0.266, -2.462e-7
-0.264, -2.522e-7
-0.262, -3.637e-7
-0.260, -4.253e-7
-0.258, -3.520e-7
-0.256, -2.480e-7
-0.254, -2.559e-7
-0.252, -3.630e-7
-0.250, -4.239e-7
-0.248, -3.570e-7
-0.246, -2.519e-7
-0.244, -2.540e-7
-0.242, -3.617e-7
-0.240, -4.279e-7
-0.238, -3.604e-7
-0.236, -2.517e-7
-0.234, -2.543e-7
-0.232, -3.648e-7
-0.230, -4.273e-7
-0.228, -3.608e-7
-0.226, -2.569e-7
-0.224, -2.563e-7
-0.222, -3.622e-7
-0.220, -4.285e-7
-0.218, -3.669e-7
-0.216, -2.592e-7
-0.214, -2.543e-7
-0.212, -3.639e-7
-0.210, -4.323e-7
-0.208, -3.662e-7
-0.206, -2.608e-7
-0.204, -2.511e-7
-0.202, -3.626e-7
-0.200, -4.303e-7
-0.198, -3.696e-7
-0.196, -2.658e-7
-0.194, -2.565e-7
-0.192, -3.613e-7
-0.190, -4.362e-7
-0.188, -3.749e-7
-0.186, -2.645e-7
-0.184, -2.578e-7
-0.182, -3.640e-7
-0.180, -4.365e-7
-0.178, -3.753e-7
-0.176, -2.695e-7
-0.174, -2.604e-7
-0.172, -3.608e-7
-0.170, -4.369e-7
-0.168, -3.816e-7
-0.166, -2.727e-7
-0.164, -2.586e-7
-0.162, -3.619e-7
-0.160, -4.399e-7
-0.158, -3.836e-7
-0.156, -2.732e-7
-0.154, -2.609e-7
-0.152, -3.640e-7
-0.150, -4.384e-7
-0.148, -3.865e-7
-0.146, -2.792e-7
-0.144, -2.611e-7
-0.142, -3.616e-7
-0.140, -4.422e-7
-0.138, -3.918e-7
-0.136, -2.799e-7
-0.134, -2.608e-7
-0.132, -3.648e-7
-0.130, -4.432e-7
-0.128, -3.913e-7
-0.126, -2.833e-7
-0.124, -2.652e-7
-0.122, -3.635e-7
-0.120, -4.427e-7
-0.118, -3.969e-7
-0.116, -2.883e-7
-0.114, -2.632e-7
-0.112, -3.630e-7
-0.110, -4.483e-7
-0.108, -3.992e-7
-0.106, -2.880e-7
-0.104, -2.665e-7
-0.102, -3.675e-7
-0.100, -4.481e-7
-0.098, -4.009e-7
-0.096, -2.937e-7
-0.094, -2.680e-7
-0.092, -3.623e-7
-0.090, -4.502e-7
-0.088, -4.072e-7
-0.086, -2.950e-7
-0.084, -2.681e-7
-0.082, -3.662e-7
-0.080, -4.518e-7
-0.078, -4.085e-7
-0.076, -2.980e-7
-0.074, -2.714e-7
-0.072, -3.644e-7
-0.070, -4.515e-7
-0.068, -4.142e-7
-0.066, -3.026e-7
-0.064, -2.690e-7
-0.062, -3.659e-7
-0.060, -4.555e-7
-0.058, -4.156e-7
-0.056, -3.048e-7
-0.054, -2.741e-7
-0.052, -3.661e-7
-0.050, -4.537e-7
-0.048, -4.198e-7
-0.046, -3.114e-7
-0.044, -2.738e-7
-0.042, -3.652e-7
-0.040, -4.592e-7
-0.038, -4.234e-7
-0.036, -3.115e-7
-0.034, -2.771e-7
-0.032, -3.681e-7
-0.030, -4.594e-7
-0.028, -4.252e-7
-0.026, -3.167e-7
-0.024, -2.788e-7
-0.022, -3.653e-7
-0.020, -4.621e-7
-0.018, -4.313e-7
-0.016, -3.188e-7
-0.014, -2.796e-7
-0.012, -3.686e-7
-0.010, -4.634e-7
-0.008, -4.325e-7
-0.006, -3.231e-7
-0.004, -2.843e-7
-0.002, -3.672e-7
-0.001, -3.241e-7