File: Example Data/FC.txt
June 8, 2022   12:35:56
Cyclic Voltammetry
File: fc
Data Source:  Experiment
Instrument Model:  CHI620D
Ref. Electrode: Ag/AgCl
Header:
Note:

Init E (V) = 0
High E (V) = 1.2
Low E (V) = 0
Final E (V) = 0.05
Init P/N = P
Scan Rate (V/s) = 0.1
Segment = 2
Sample Interval (V) = 0.001
Quiet Time (sec) = 2
Sensitivity (A/V) = 1e-5
Comp R (ohm) = 10.1

Segment 1:
Ep = 0.863V
Eh = 0.758V
ip = -6.367e-6A
Ah = -6.562e-6C

Segment 2:
Ep = 0.653V
Eh = 0.750V
ip = 6.659e-6A
Ah = 6.796e-6C

Potential/V, Current/A

0.000, 3.381e-8
0.002, -3.378e-9
0.004, -1.760e-7
0.006, -3.347e-7
0.008, -2.700e-7
0.010, -1.039e-7
0.012, -5.453e-8
0.014, -2.076e-7
0.016, -3.571e-7
0.018, -2.886e-7
0.020, -1.231e-7
0.022, -7.024e-8
0.024, -2.209e-7
0.026, -3.695e-7
0.028, -3.036e-7
0.030, -1.354e-7
0.032, -8.096e-8
0.034, -2.316e-7
0.036, -3.818e-7
0.038, -3.134e-7
0.040, -1.465e-7
0.042, -9.210e-8
0.044, -2.393e-7
0.046, -3.914e-7
0.048, -3.251e-7
0.050, -1.562e-7
0.052, -1.003e-7
0.054, -2.485e-7
0.056, -4.019e-7
0.058, -3.329e-7
0.060, -1.644e-7
0.062, -1.113e-7
0.064, -2.559e-7
0.066, -4.096e-7
0.068, -3.436e-7
0.070, -1.741e-7
0.072, -1.193e-7
0.074, -2.628e-7
0.076, -4.201e-7
0.078, -3.540e-7
0.080, -1.827e-7
0.082, -1.298e-7
0.084, -2.737e-7
0.086, -4.265e-7
0.088, -3.638e-7
0.090, -1.945e-7
0.092, -1.378e-7
0.094, -2.801e-7
0.096, -4.372e-7
0.098, -3.741e-7
0.100, -2.018e-7
0.102, -1.490e-7
0.104, -2.918e-7
0.106, -4.464e-7
0.108, -3.838e-7
0.110, -2.133e-7
0.112, -1.573e-7
0.114, -2.986e-7
0.116, -4.564e-7
0.118, -3.945e-7
0.120, -2.236e-7
0.122, -1.660e-7
0.124, -3.080e-7
0.126, -4.670e-7
0.128, -4.041e-7
0.130, -2.342e-7
0.132, -1.779e-7
0.134, -3.164e-7
0.136, -4.773e-7
0.138, -4.165e-7
0.140, -2.444e-7
0.142, -1.883e-7
0.144, -3.274e-7
0.146, -4.882e-7
0.148, -4.265e-7
0.150, -2.555e-7
0.152, -2.014e-7
0.154, -3.361e-7
0.156, -4.966e-7
0.158, -4.395e-7
0.160, -2.677e-7
0.162, -2.104e-7
0.164, -3.474e-7
0.166, -5.094e-7
0.168, -4.520e-7
0.170, -2.777e-7
0.172, -2.230e-7
0.174, -3.581e-7
0.176, -5.193e-7
0.178, -4.641e-7
0.180, -2.905e-7
0.182, -2.333e-7
0.184, -3.696e-7
0.186, -5.323e-7
0.188, -4.760e-7
0.190, -3.022e-7
0.192, -2.459e-7
0.194, -3.817e-7
0.196, -5.428e-7
0.198, -4.878e-7
0.200, -3.163e-7
0.202, -2.579e-7
0.204, -3.915e-7
0.206, -5.528e-7
0.208, -5.008e-7
0.210, -3.271e-7
0.212, -2.690e-7
0.214, -4.041e-7
0.216, -5.685e-7
0.218, -5.134e-7
0.220, -3.406e-7
0.222, -2.831e-7
0.224, -4.137e-7
0.226, -5.806e-7
0.228, -5.276e-7
0.230, -3.520e-7
0.232, -2.953e-7
0.234, -4.275e-7
0.236, -5.933e-7
0.238, -5.393e-7
0.240, -3.660e-7
0.242, -3.088e-7
0.244, -4.389e-7
0.246, -6.040e-7
0.248, -5.561e-7
0.250, -3.781e-7
0.252, -3.197e-7
0.254, -4.517e-7
0.256, -6.181e-7
0.258, -5.670e-7
0.260, -3.917e-7
0.262, -3.330e-7
0.264, -4.651e-7
0.266, -6.294e-7
0.268, -5.816e-7
0.270, -4.060e-7
0.272, -3.452e-7
0.274, -4.766e-7
0.276, -6.444e-7
0.278, -5.952e-7
0.280, -4.186e-7
0.282, -3.590e-7
0.284, -4.896e-7
0.286, -6.564e-7
0.288, -6.094e-7
0.290, -4.342e-7
0.292, -3.728e-7
0.294, -5.012e-7
0.296, -6.727e-7
0.298, -6.243e-7
0.300, -4.470e-7
0.302, -3.868e-7
0.304, -5.160e-7
0.306, -6.862e-7
0.308, -6.412e-7
0.310, -4.635e-7
0.312, -4.022e-7
0.314, -5.285e-7
0.316, -7.009e-7
0.318, -6.570e-7
0.320, -4.771e-7
0.322, -4.161e-7
0.324, -5.449e-7
0.326, -7.157e-7
0.328, -6.716e-7
0.330, -4.930e-7
0.332, -4.314e-7
0.334, -5.595e-7
0.336, -7.317e-7
0.338, -6.893e-7
0.340, -5.088e-7
0.342, -4.459e-7
0.344, -5.762e-7
0.346, -7.477e-7
0.348, -7.041e-7
0.350, -5.256e-7
0.352, -4.635e-7
0.354, -5.915e-7
0.356, -7.627e-7
0.358, -7.224e-7
0.360, -5.428e-7
0.362, -4.784e-7
0.364, -6.061e-7
0.366, -7.817e-7
0.368, -7.388e-7
0.370, -5.607e-7
0.372, -4.969e-7
0.374, -6.238e-7
0.376, -7.980e-7
0.378, -7.569e-7
0.380, -5.792e-7
0.382, -5.132e-7
0.384, -6.398e-7
0.386, -8.163e-7
0.388, -7.759e-7
0.390, -5.952e-7
0.392, -5.333e-7
0.394, -6.585e-7
0.396, -8.338e-7
0.398, -7.950e-7
0.400, -6.156e-7
0.402, -5.505e-7
0.404, -6.762e-7
0.406, -8.541e-7
0.408, -8.157e-7
0.410, -6.249e-7
0.412, -5.666e-7
0.414, -6.956e-7
0.416, -8.705e-7
0.418, -8.344e-7
0.420, -6.540e-7
0.422, -5.879e-7
0.424, -7.148e-7
0.426, -8.911e-7
0.428, -8.567e-7
0.430, -6.739e-7
0.432, -6.077e-7
0.434, -7.351e-7
0.436, -9.114e-7
0.438, -8.763e-7
0.440, -6.963e-7
0.442, -6.294e-7
0.444, -7.542e-7
0.446, -9.336e-7
0.448, -8.997e-7
0.450, -7.172e-7
0.452, -6.484e-7
0.454, -7.764e-7
0.456, -9.560e-7
0.458, -9.207e-7
0.460, -7.399e-7
0.462, -6.720e-7
0.464, -7.965e-7
0.466, -9.770e-7
0.468, -9.450e-7
0.470, -7.616e-7
0.472, -6.930e-7
0.474, -8.186e-7
0.476, -1.001e-6
0.478, -9.684e-7
0.480, -7.844e-7
0.482, -7.183e-7
0.484, -8.410e-7
0.486, -1.022e-6
0.488, -9.947e-7
0.490, -8.098e-7
0.492, -7.395e-7
0.494, -8.655e-7
0.496, -1.049e-6
0.498, -1.020e-6
0.500, -8.354e-7
0.502, -7.649e-7
0.504, -8.915e-7
0.506, -1.072e-6
0.508, -1.048e-6
0.510, -8.639e-7
0.512, -7.937e-7
0.514, -9.172e-7
0.516, -1.102e-6
0.518, -1.076e-6
0.520, -8.929e-7
0.522, -8.196e-7
0.524, -9.450e-7
0.526, -1.130e-6
0.528, -1.107e-6
0.530, -9.238e-7
0.532, -8.490e-7
0.534, -9.744e-7
0.536, -1.163e-6
0.538, -1.138e-6
0.540, -9.540e-7
0.542, -8.820e-7
0.544, -1.008e-6
0.546, -1.195e-6
0.548, -1.174e-6
0.550, -9.906e-7
0.552, -9.183e-7
0.554, -1.042e-6
0.556, -1.233e-6
0.558, -1.214e-6
0.560, -1.030e-6
0.562, -9.561e-7
0.564, -1.082e-6
0.566, -1.273e-6
0.568, -1.256e-6
0.570, -1.074e-6
0.572, -9.999e-7
0.574, -1.125e-6
0.576, -1.318e-6
0.578, -1.305e-6
0.580, -1.121e-6
0.582, -1.047e-6
0.584, -1.176e-6
0.586, -1.369e-6
0.588, -1.357e-6
0.590, -1.176e-6
0.592, -1.102e-6
0.594, -1.229e-6
0.596, -1.426e-6
0.598, -1.418e-6
0.600, -1.237e-6
0.602, -1.161e-6
0.604, -1.292e-6
0.606, -1.492e-6
0.608, -1.484e-6
0.610, -1.306e-6
0.612, -1.232e-6
0.614, -1.357e-6
0.616, -1.560e-6
0.618, -1.559e-6
0.620, -1.383e-6
0.622, -1.308e-6
0.624, -1.441e-6
0.626, -1.649e-6
0.628, -1.649e-6
0.630, -1.473e-6
0.632, -1.403e-6
0.634, -1.534e-6
0.636, -1.745e-6
0.638, -1.754e-6
0.640, -1.581e-6
0.642, -1.509e-6
0.644, -1.644e-6
0.646, -1.863e-6
0.648, -1.878e-6
0.650, -1.708e-6
0.652, -1.640e-6
0.654, -1.778e-6
0.656, -2.002e-6
0.658, -2.028e-6
0.660, -1.864e-6
0.662, -1.795e-6
0.664, -1.942e-6
0.666, -2.173e-6
0.668, -2.208e-6
0.670, -2.049e-6
0.672, -1.987e-6
0.674, -2.139e-6
0.676, -2.378e-6
0.678, -2.428e-6
0.680, -2.279e-6
0.682, -2.217e-6
0.684, -2.374e-6
0.686, -2.630e-6
0.688, -2.691e-6
0.690, -2.548e-6
0.692, -2.493e-6
0.694, -2.658e-6
0.696, -2.927e-6
0.698, -3.000e-6
0.700, -2.870e-6
0.702, -2.819e-6
0.704, -2.990e-6
0.706, -3.274e-6
0.708, -3.362e-6
0.710, -3.237e-6
0.712, -3.196e-6
0.714, -3.376e-6
0.716, -3.668e-6
0.718, -3.774e-6
0.720, -3.660e-6
0.722, -3.621e-6
0.724, -3.804e-6
0.726, -4.111e-6
0.728, -4.226e-6
0.730, -4.117e-6
0.732, -4.083e-6
0.734, -4.276e-6
0.736, -4.590e-6
0.738, -4.714e-6
0.740, -4.612e-6
0.742, -4.581e-6
0.744, -4.777e-6
0.746, -5.100e-6
0.748, -5.233e-6
0.750, -5.133e-6
0.752, -5.105e-6
0.754, -5.308e-6
0.756, -5.635e-6
0.758, -5.771e-6
0.760, -5.678e-6
0.762, -5.650e-6
0.764, -5.852e-6
0.766, -6.182e-6
0.768, -6.323e-6
0.770, -6.229e-6
0.772, -6.197e-6
0.774, -6.402e-6
0.776, -6.734e-6
0.778, -6.871e-6
0.780, -6.778e-6
0.782, -6.747e-6
0.784, -6.944e-6
0.786, -7.273e-6
0.788, -7.411e-6
0.790, -7.312e-6
0.792, -7.274e-6
0.794, -7.467e-6
0.796, -7.794e-6
0.798, -7.923e-6
0.800, -7.817e-6
0.802, -7.776e-6
0.804, -7.963e-6
0.806, -8.277e-6
0.808, -8.400e-6
0.810, -8.287e-6
0.812, -8.233e-6
0.814, -8.410e-6
0.816, -8.713e-6
0.818, -8.824e-6
0.820, -8.683e-6
0.822, -8.624e-6
0.824, -8.790e-6
0.826, -9.076e-6
0.828, -9.174e-6
0.830, -9.036e-6
0.832, -8.958e-6
0.834, -9.109e-6
0.836, -9.380e-6
0.838, -9.456e-6
0.840, -9.302e-6
0.842, -9.211e-6
0.844, -9.345e-6
0.846, -9.591e-6
0.848, -9.648e-6
0.850, -9.478e-6
0.852, -9.367e-6
0.854, -9.483e-6
0.856, -9.711e-6
0.858, -9.744e-6
0.860, -9.550e-6
0.862, -9.427e-6
0.864, -9.523e-6
0.866, -9.727e-6
0.868, -9.736e-6
0.870, -9.526e-6
0.872, -9.382e-6
0.874, -9.459e-6
0.876, -9.643e-6
0.878, -9.629e-6
0.880, -9.397e-6
0.882, -9.240e-6
0.884, -9.299e-6
0.886, -9.460e-6
0.888, -9.427e-6
0.890, -9.179e-6
0.892, -9.004e-6
0.894, -9.050e-6
0.896, -9.195e-6
0.898, -9.147e-6
0.900, -8.881e-6
0.902, -8.697e-6
0.904, -8.736e-6
0.906, -8.868e-6
0.908, -8.810e-6
0.910, -8.542e-6
0.912, -8.353e-6
0.914, -8.387e-6
0.916, -8.521e-6
0.918, -8.462e-6
0.920, -8.194e-6
0.922, -8.011e-6
0.924, -8.050e-6
0.926, -8.186e-6
0.928, -8.133e-6
0.930, -7.873e-6
0.932, -7.693e-6
0.934, -7.737e-6
0.936, -7.886e-6
0.938, -7.842e-6
0.940, -7.588e-6
0.942, -7.414e-6
0.944, -7.470e-6
0.946, -7.625e-6
0.948, -7.586e-6
0.950, -7.343e-6
0.952, -7.178e-6
0.954, -7.237e-6
0.956, -7.400e-6
0.958, -7.373e-6
0.960, -7.132e-6
0.962, -6.973e-6
0.964, -7.040e-6
0.966, -7.209e-6
0.968, -7.186e-6
0.970, -6.952e-6
0.972, -6.797e-6
0.974, -6.868e-6
0.976, -7.042e-6
0.978, -7.028e-6
0.980, -6.797e-6
0.982, -6.644e-6
0.984, -6.723e-6
0.986, -6.901e-6
0.988, -6.890e-6
0.990, -6.665e-6
0.992, -6.516e-6
0.994, -6.596e-6
0.996, -6.777e-6
0.998, -6.773e-6
1.000, -6.553e-6
1.002, -6.403e-6
1.004, -6.488e-6
1.006, -6.675e-6
1.008, -6.671e-6
1.010, -6.456e-6
1.012, -6.311e-6
1.014, -6.396e-6
1.016, -6.585e-6
1.018, -6.587e-6
1.020, -6.374e-6
1.022, -6.228e-6
1.024, -6.308e-6
1.026, -6.505e-6
1.028, -6.509e-6
1.030, -6.298e-6
1.032, -6.159e-6
1.034, -6.246e-6
1.036, -6.440e-6
1.038, -6.450e-6
1.040, -6.240e-6
1.042, -6.098e-6
1.044, -6.186e-6
1.046, -6.385e-6
1.048, -6.395e-6
1.050, -6.184e-6
1.052, -6.044e-6
1.054, -6.136e-6
1.056, -6.331e-6
1.058, -6.345e-6
1.060, -6.139e-6
1.062, -5.996e-6
1.064, -6.088e-6
1.066, -6.286e-6
1.068, -6.300e-6
1.070, -6.094e-6
1.072, -5.953e-6
1.074, -6.047e-6
1.076, -6.244e-6
1.078, -6.259e-6
1.080, -6.057e-6
1.082, -5.913e-6
1.084, -6.005e-6
1.086, -6.207e-6
1.088, -6.223e-6
1.090, -6.019e-6
1.092, -5.877e-6
1.094, -5.970e-6
1.096, -6.172e-6
1.098, -6.187e-6
1.100, -5.986e-6
1.102, -5.844e-6
1.104, -5.934e-6
1.106, -6.137e-6
1.108, -6.156e-6
1.110, -5.953e-6
1.112, -5.811e-6
1.114, -5.904e-6
1.116, -6.107e-6
1.118, -6.124e-6
1.120, -5.924e-6
1.122, -5.784e-6
1.124, -5.873e-6
1.126, -6.079e-6
1.128, -6.103e-6
1.130, -5.898e-6
1.132, -5.755e-6
1.134, -5.848e-6
1.136, -6.052e-6
1.138, -6.074e-6
1.140, -5.872e-6
1.142, -5.730e-6
1.144, -5.824e-6
1.146, -6.025e-6
1.148, -6.050e-6
1.150, -5.851e-6
1.152, -5.706e-6
1.154, -5.800e-6
1.156, -6.005e-6
1.158, -6.029e-6
1.160, -5.829e-6
1.162, -5.686e-6
1.164, -5.780e-6
1.166, -5.984e-6
1.168, -6.010e-6
1.170, -5.813e-6
1.172, -5.667e-6
1.174, -5.760e-6
1.176, -5.969e-6
1.178, -5.994e-6
1.180, -5.795e-6
1.182, -5.652e-6
1.184, -5.747e-6
1.186, -5.953e-6
1.188, -5.979e-6
1.190, -5.784e-6
1.192, -5.641e-6
1.194, -5.732e-6
1.196, -5.942e-6
1.198, -5.971e-6
1.200, -5.681e-6
1.198, -5.176e-6
1.196, -5.051e-6
1.194, -5.095e-6
1.192, -4.990e-6
1.190, -4.683e-6
1.188, -4.441e-6
1.186, -4.444e-6
1.184, -4.572e-6
1.182, -4.529e-6
1.180, -4.263e-6
1.178, -4.053e-6
1.176, -4.087e-6
1.174, -4.239e-6
1.172, -4.211e-6
1.170, -3.964e-6
1.168, -3.772e-6
1.166, -3.816e-6
1.164, -3.981e-6
1.162, -3.968e-6
1.160, -3.730e-6
1.158, -3.547e-6
1.156, -3.601e-6
1.154, -3.774e-6
1.152, -3.768e-6
1.150, -3.537e-6
1.148, -3.363e-6
1.146, -3.424e-6
1.144, -3.597e-6
1.142, -3.600e-6
1.140, -3.376e-6
1.138, -3.203e-6
1.136, -3.268e-6
1.134, -3.449e-6
1.132, -3.454e-6
1.130, -3.234e-6
1.128, -3.065e-6
1.126, -3.131e-6
1.124, -3.314e-6
1.122, -3.323e-6
1.120, -3.110e-6
1.118, -2.942e-6
1.116, -3.013e-6
1.114, -3.199e-6
1.112, -3.210e-6
1.110, -2.998e-6
1.108, -2.834e-6
1.106, -2.907e-6
1.104, -3.093e-6
1.102, -3.105e-6
1.100, -2.898e-6
1.098, -2.736e-6
1.096, -2.806e-6
1.094, -2.997e-6
1.092, -3.012e-6
1.090, -2.804e-6
1.088, -2.643e-6
1.086, -2.718e-6
1.084, -2.909e-6
1.082, -2.924e-6
1.080, -2.718e-6
1.078, -2.561e-6
1.076, -2.635e-6
1.074, -2.825e-6
1.072, -2.845e-6
1.070, -2.640e-6
1.068, -2.481e-6
1.066, -2.558e-6
1.064, -2.748e-6
1.062, -2.769e-6
1.060, -2.565e-6
1.058, -2.409e-6
1.056, -2.486e-6
1.054, -2.676e-6
1.052, -2.699e-6
1.050, -2.498e-6
1.048, -2.339e-6
1.046, -2.415e-6
1.044, -2.609e-6
1.042, -2.633e-6
1.040, -2.430e-6
1.038, -2.274e-6
1.036, -2.353e-6
1.034, -2.545e-6
1.032, -2.567e-6
1.030, -2.371e-6
1.028, -2.214e-6
1.026, -2.289e-6
1.024, -2.493e-6
1.022, -2.515e-6
1.020, -2.313e-6
1.018, -2.157e-6
1.016, -2.233e-6
1.014, -2.428e-6
1.012, -2.453e-6
1.010, -2.255e-6
1.008, -2.101e-6
1.006, -2.175e-6
1.004, -2.370e-6
1.002, -2.400e-6
1.000, -2.201e-6
0.998, -2.047e-6
0.996, -2.122e-6
0.994, -2.317e-6
0.992, -2.346e-6
0.990, -2.149e-6
0.988, -1.997e-6
0.986, -2.070e-6
0.984, -2.263e-6
0.982, -2.297e-6
0.980, -2.102e-6
0.978, -1.945e-6
0.976, -2.020e-6
0.974, -2.215e-6
0.972, -2.250e-6
0.970, -2.053e-6
0.968, -1.898e-6
0.966, -1.974e-6
0.964, -2.166e-6
0.962, -2.200e-6
0.960, -2.007e-6
0.958, -1.851e-6
0.956, -1.930e-6
0.954, -2.118e-6
0.952, -2.150e-6
0.950, -1.960e-6
0.948, -1.810e-6
0.946, -1.882e-6
0.944, -2.070e-6
0.942, -2.103e-6
0.940, -1.916e-6
0.938, -1.766e-6
0.936, -1.832e-6
0.934, -2.022e-6
0.932, -2.058e-6
0.930, -1.871e-6
0.928, -1.719e-6
0.926, -1.787e-6
0.924, -1.975e-6
0.922, -2.009e-6
0.920, -1.818e-6
0.918, -1.670e-6
0.916, -1.738e-6
0.914, -1.924e-6
0.912, -1.961e-6
0.910, -1.772e-6
0.908, -1.620e-6
0.906, -1.682e-6
0.904, -1.870e-6
0.902, -1.912e-6
0.900, -1.719e-6
0.898, -1.562e-6
0.896, -1.625e-6
0.894, -1.813e-6
0.892, -1.852e-6
0.890, -1.656e-6
0.888, -1.497e-6
0.886, -1.559e-6
0.884, -1.745e-6
0.882, -1.786e-6
0.880, -1.591e-6
0.878, -1.426e-6
0.876, -1.480e-6
0.874, -1.662e-6
0.872, -1.700e-6
0.870, -1.504e-6
0.868, -1.336e-6
0.866, -1.391e-6
0.864, -1.571e-6
0.862, -1.604e-6
0.860, -1.400e-6
0.858, -1.225e-6
0.856, -1.269e-6
0.854, -1.442e-6
0.852, -1.479e-6
0.850, -1.277e-6
0.848, -1.096e-6
0.846, -1.127e-6
0.844, -1.293e-6
0.842, -1.324e-6
0.840, -1.109e-6
0.838, -9.181e-7
0.836, -9.463e-7
0.834, -1.108e-6
0.832, -1.134e-6
0.830, -9.115e-7
0.828, -7.096e-7
0.826, -7.231e-7
0.824, -8.686e-7
0.822, -8.918e-7
0.820, -6.715e-7
0.818, -4.677e-7
0.816, -4.632e-7
0.814, -5.976e-7
0.812, -6.153e-7
0.810, -3.815e-7
0.808, -1.494e-7
0.806, -1.393e-7
0.804, -2.699e-7
0.802, -2.818e-7
0.800, -4.132e-8
0.798, 2.027e-7
0.796, 2.281e-7
0.794, 1.103e-7
0.792, 1.042e-7
0.790, 3.498e-7
0.788, 6.064e-7
0.786, 6.441e-7
0.784, 5.323e-7
0.782, 5.284e-7
0.780, 7.863e-7
0.778, 1.057e-6
0.776, 1.106e-6
0.774, 9.988e-7
0.772, 9.976e-7
0.770, 1.259e-6
0.768, 1.537e-6
0.766, 1.596e-6
0.764, 1.499e-6
0.762, 1.499e-6
0.760, 1.765e-6
0.758, 2.053e-6
0.756, 2.119e-6
0.754, 2.022e-6
0.752, 2.022e-6
0.750, 2.294e-6
0.748, 2.587e-6
0.746, 2.656e-6
0.744, 2.564e-6
0.742, 2.562e-6
0.740, 2.830e-6
0.738, 3.127e-6
0.736, 3.199e-6
0.734, 3.109e-6
0.732, 3.104e-6
0.730, 3.371e-6
0.728, 3.671e-6
0.726, 3.739e-6
0.724, 3.642e-6
0.722, 3.634e-6
0.720, 3.896e-6
0.718, 4.192e-6
0.716, 4.261e-6
0.714, 4.163e-6
0.712, 4.151e-6
0.710, 4.400e-6
0.708, 4.687e-6
0.706, 4.747e-6
0.704, 4.640e-6
0.702, 4.616e-6
0.700, 4.856e-6
0.698, 5.137e-6
0.696, 5.187e-6
0.694, 5.067e-6
0.692, 5.032e-6
0.690, 5.257e-6
0.688, 5.521e-6
0.686, 5.555e-6
0.684, 5.426e-6
0.682, 5.376e-6
0.680, 5.583e-6
0.678, 5.828e-6
0.676, 5.845e-6
0.674, 5.698e-6
0.672, 5.630e-6
0.670, 5.820e-6
0.668, 6.045e-6
0.666, 6.037e-6
0.664, 5.869e-6
0.662, 5.782e-6
0.660, 5.945e-6
0.658, 6.143e-6
0.656, 6.114e-6
0.654, 5.928e-6
0.652, 5.821e-6
0.650, 5.957e-6
0.648, 6.128e-6
0.646, 6.070e-6
0.644, 5.859e-6
0.642, 5.734e-6
0.640, 5.848e-6
0.638, 5.995e-6
0.636, 5.910e-6
0.634, 5.678e-6
0.632, 5.539e-6
0.630, 5.630e-6
0.628, 5.751e-6
0.626, 5.649e-6
0.624, 5.404e-6
0.622, 5.251e-6
0.620, 5.328e-6
0.618, 5.438e-6
0.616, 5.323e-6
0.614, 5.058e-6
0.612, 4.906e-6
0.610, 4.981e-6
0.608, 5.084e-6
0.606, 4.965e-6
0.604, 4.711e-6
0.602, 4.560e-6
0.600, 4.634e-6
0.598, 4.739e-6
0.596, 4.623e-6
0.594, 4.375e-6
0.592, 4.228e-6
0.590, 4.309e-6
0.588, 4.421e-6
0.586, 4.311e-6
0.584, 4.070e-6
0.582, 3.934e-6
0.580, 4.020e-6
0.578, 4.141e-6
0.576, 4.038e-6
0.574, 3.806e-6
0.572, 3.678e-6
0.570, 3.768e-6
0.568, 3.898e-6
0.566, 3.803e-6
0.564, 3.575e-6
0.562, 3.454e-6
0.560, 3.553e-6
0.558, 3.687e-6
0.556, 3.597e-6
0.554, 3.374e-6
0.552, 3.262e-6
0.550, 3.361e-6
0.548, 3.499e-6
0.546, 3.419e-6
0.544, 3.199e-6
0.542, 3.092e-6
0.540, 3.191e-6
0.538, 3.338e-6
0.536, 3.262e-6
0.534, 3.044e-6
0.532, 2.939e-6
0.530, 3.045e-6
0.528, 3.193e-6
0.526, 3.120e-6
0.524, 2.907e-6
0.522, 2.806e-6
0.520, 2.912e-6
0.518, 3.062e-6
0.516, 2.996e-6
0.514, 2.785e-6
0.512, 2.687e-6
0.510, 2.794e-6
0.508, 2.948e-6
0.506, 2.884e-6
0.504, 2.674e-6
0.502, 2.576e-6
0.500, 2.685e-6
0.498, 2.841e-6
0.496, 2.781e-6
0.494, 2.574e-6
0.492, 2.477e-6
0.490, 2.585e-6
0.488, 2.747e-6
0.486, 2.688e-6
0.484, 2.482e-6
0.482, 2.387e-6
0.480, 2.497e-6
0.478, 2.659e-6
0.476, 2.604e-6
0.474, 2.398e-6
0.472, 2.307e-6
0.470, 2.416e-6
0.468, 2.579e-6
0.466, 2.528e-6
0.464, 2.322e-6
0.462, 2.231e-6
0.460, 2.339e-6
0.458, 2.505e-6
0.456, 2.458e-6
0.454, 2.251e-6
0.452, 2.160e-6
0.450, 2.272e-6
0.448, 2.436e-6
0.446, 2.391e-6
0.444, 2.186e-6
0.442, 2.097e-6
0.440, 2.207e-6
0.438, 2.373e-6
0.436, 2.330e-6
0.434, 2.127e-6
0.432, 2.035e-6
0.430, 2.147e-6
0.428, 2.314e-6
0.426, 2.274e-6
0.424, 2.070e-6
0.422, 1.979e-6
0.420, 2.093e-6
0.418, 2.259e-6
0.416, 2.219e-6
0.414, 2.020e-6
0.412, 1.927e-6
0.410, 2.033e-6
0.408, 2.204e-6
0.406, 2.170e-6
0.404, 1.969e-6
0.402, 1.878e-6
0.400, 1.990e-6
0.398, 2.160e-6
0.396, 2.124e-6
0.394, 1.923e-6
0.392, 1.834e-6
0.390, 1.945e-6
0.388, 2.112e-6
0.386, 2.082e-6
0.384, 1.881e-6
0.382, 1.789e-6
0.380, 1.900e-6
0.378, 2.069e-6
0.376, 2.043e-6
0.374, 1.839e-6
0.372, 1.749e-6
0.370, 1.864e-6
0.368, 2.029e-6
0.366, 2.001e-6
0.364, 1.802e-6
0.362, 1.711e-6
0.360, 1.823e-6
0.358, 1.990e-6
0.356, 1.966e-6
0.354, 1.767e-6
0.352, 1.674e-6
0.350, 1.788e-6
0.348, 1.956e-6
0.346, 1.930e-6
0.344, 1.733e-6
0.342, 1.640e-6
0.340, 1.753e-6
0.338, 1.921e-6
0.336, 1.896e-6
0.334, 1.702e-6
0.332, 1.607e-6
0.330, 1.720e-6
0.328, 1.890e-6
0.326, 1.867e-6
0.324, 1.669e-6
0.322, 1.578e-6
0.320, 1.690e-6
0.318, 1.858e-6
0.316, 1.835e-6
0.314, 1.642e-6
0.312, 1.549e-6
0.310, 1.660e-6
0.308, 1.828e-6
0.306, 1.811e-6
0.304, 1.615e-6
0.302, 1.521e-6
0.300, 1.632e-6
0.298, 1.801e-6
0.296, 1.783e-6
0.294, 1.587e-6
0.292, 1.495e-6
0.290, 1.607e-6
0.288, 1.773e-6
0.286, 1.756e-6
0.284, 1.564e-6
0.282, 1.469e-6
0.280, 1.582e-6
0.278, 1.748e-6
0.276, 1.733e-6
0.274, 1.540e-6
0.272, 1.445e-6
0.270, 1.559e-6
0.268, 1.726e-6
0.266, 1.709e-6
0.264, 1.519e-6
0.262, 1.424e-6
0.260, 1.536e-6
0.258, 1.703e-6
0.256, 1.688e-6
0.254, 1.499e-6
0.252, 1.403e-6
0.250, 1.515e-6
0.248, 1.684e-6
0.246, 1.667e-6
0.244, 1.478e-6
0.242, 1.385e-6
0.240, 1.496e-6
0.238, 1.663e-6
0.236, 1.648e-6
0.234, 1.461e-6
0.232, 1.366e-6
0.230, 1.476e-6
0.228, 1.644e-6
0.226, 1.633e-6
0.224, 1.443e-6
0.222, 1.348e-6
0.220, 1.459e-6
0.218, 1.628e-6
0.216, 1.615e-6
0.214, 1.427e-6
0.212, 1.334e-6
0.210, 1.444e-6
0.208, 1.611e-6
0.206, 1.602e-6
0.204, 1.410e-6
0.202, 1.316e-6
0.200, 1.428e-6
0.198, 1.596e-6
0.196, 1.586e-6
0.194, 1.399e-6
0.192, 1.303e-6
0.190, 1.415e-6
0.188, 1.582e-6
0.186, 1.571e-6
0.184, 1.388e-6
0.182, 1.290e-6
0.180, 1.401e-6
0.178, 1.570e-6
0.176, 1.561e-6
0.174, 1.374e-6
0.172, 1.276e-6
0.170, 1.389e-6
0.168, 1.560e-6
0.166, 1.548e-6
0.164, 1.363e-6
0.162, 1.266e-6
0.160, 1.376e-6
0.158, 1.547e-6
0.156, 1.538e-6
0.154, 1.353e-6
0.152, 1.254e-6
0.150, 1.366e-6
0.148, 1.537e-6
0.146, 1.528e-6
0.144, 1.342e-6
0.142, 1.246e-6
0.140, 1.357e-6
0.138, 1.525e-6
0.136, 1.519e-6
0.134, 1.335e-6
0.132, 1.236e-6
0.130, 1.346e-6
0.128, 1.516e-6
0.126, 1.512e-6
0.124, 1.325e-6
0.122, 1.227e-6
0.120, 1.339e-6
0.118, 1.509e-6
0.116, 1.501e-6
0.114, 1.319e-6
0.112, 1.220e-6
0.110, 1.330e-6
0.108, 1.499e-6
0.106, 1.495e-6
0.104, 1.313e-6
0.102, 1.212e-6
0.100, 1.321e-6
0.098, 1.494e-6
0.096, 1.487e-6
0.094, 1.305e-6
0.092, 1.204e-6
0.090, 1.314e-6
0.088, 1.485e-6
0.086, 1.480e-6
0.084, 1.299e-6
0.082, 1.196e-6
0.080, 1.305e-6
0.078, 1.477e-6
0.076, 1.473e-6
0.074, 1.291e-6
0.072, 1.190e-6
0.070, 1.298e-6
0.068, 1.469e-6
0.066, 1.466e-6
0.064, 1.285e-6
0.062, 1.183e-6
0.060, 1.291e-6
0.058, 1.461e-6
0.056, 1.461e-6
0.054, 1.278e-6
0.052, 1.175e-6
0.051, 1.455e-6