File: Example Data/Sample.txt
June 8, 2022   12:26:39
Cyclic Voltammetry
File: pz2pnme-p-0.7mm-et3nhbf4-1.0mm
Data Source:  Experiment
Instrument Model:  CHI620D
Ref. Electrode: Ag/AgCl
Header:
Note:

Init E (V) = -0.02
High E (V) = 0
Low E (V) = -1.35
Init P/N = N
Scan Rate (V/s) = 0.1
Segment = 2
Sample Interval (V) = 0.001
Quiet Time (sec) = 2
Sensitivity (A/V) = 1e-5
Comp R (ohm) = 94.9

Segment 1:
Ep = -0.519V
Eh = -0.479V
ip = 8.712e-7A
Ah = 3.020e-7C

Ep = -0.909V
Eh = -0.836V
ip = 7.519e-6A
Ah = 5.355e-6C

Segment 2:
Ep = -0.462V
Eh = -0.474V
ip = -6.355e-7A
Ah = -1.390e-7C

Potential/V, Current/A

-0.020, 2.352e-7
-0.022, 3.199e-7
-0.024, 4.574e-8
-0.026, -1.108e-7
-0.028, 6.973e-8
-0.030, 3.503e-7
-0.032, 3.604e-7
-0.034, 7.901e-8
-0.036, -9.140e-8
-0.038, 7.538e-8
-0.040, 3.627e-7
-0.042, 3.813e-7
-0.044, 9.182e-8
-0.046, -8.095e-8
-0.048, 8.447e-8
-0.050, 3.664e-7
-0.052, 3.892e-7
-0.054, 1.081e-7
-0.056, -6.598e-8
-0.058, 8.266e-8
-0.060, 3.657e-7
-0.062, 4.086e-7
-0.064, 1.196e-7
-0.066, -6.598e-8
-0.068, 8.657e-8
-0.070, 3.709e-7
-0.072, 4.143e-7
-0.074, 1.294e-7
-0.076, -5.572e-8
-0.078, 8.948e-8
-0.080, 3.638e-7
-0.082, 4.258e-7
-0.084, 1.455e-7
-0.086, -5.661e-8
-0.088, 8.743e-8
-0.090, 3.701e-7
-0.092, 4.340e-7
-0.094, 1.548e-7
-0.096, -5.066e-8
-0.098, 9.180e-8
-0.100, 3.651e-7
-0.102, 4.400e-7
-0.104, 1.756e-7
-0.106, -4.711e-8
-0.108, 8.435e-8
-0.110, 3.669e-7
-0.112, 4.458e-7
-0.114, 1.833e-7
-0.116, -4.612e-8
-0.118, 8.787e-8
-0.120, 3.693e-7
-0.122, 4.444e-7
-0.124, 1.988e-7
-0.126, -3.752e-8
-0.128, 7.963e-8
-0.130, 3.656e-7
-0.132, 4.538e-7
-0.134, 2.137e-7
-0.136, -3.770e-8
-0.138, 7.801e-8
-0.140, 3.696e-7
-0.142, 4.535e-7
-0.144, 2.241e-7
-0.146, -2.816e-8
-0.148, 7.330e-8
-0.150, 3.646e-7
-0.152, 4.589e-7
-0.154, 2.406e-7
-0.156, -2.680e-8
-0.158, 6.778e-8
-0.160, 3.673e-7
-0.162, 4.626e-7
-0.164, 2.457e-7
-0.166, -1.824e-8
-0.168, 6.737e-8
-0.170, 3.641e-7
-0.172, 4.629e-7
-0.174, 2.628e-7
-0.176, -1.011e-8
-0.178, 5.732e-8
-0.180, 3.634e-7
-0.182, 4.726e-7
-0.184, 2.692e-7
-0.186, -5.682e-9
-0.188, 5.651e-8
-0.190, 3.631e-7
-0.192, 4.714e-7
-0.194, 2.795e-7
-0.196, 6.287e-9
-0.198, 5.185e-8
-0.200, 3.574e-7
-0.202, 4.825e-7
-0.204, 2.855e-7
-0.206, 6.902e-9
-0.208, 5.068e-8
-0.210, 3.581e-7
-0.212, 4.850e-7
-0.214, 2.918e-7
-0.216, 1.918e-8
-0.218, 5.250e-8
-0.220, 3.486e-7
-0.222, 4.915e-7
-0.224, 3.061e-7
-0.226, 2.364e-8
-0.228, 4.759e-8
-0.230, 3.503e-7
-0.232, 4.989e-7
-0.234, 3.072e-7
-0.236, 3.029e-8
-0.238, 5.280e-8
-0.240, 3.435e-7
-0.242, 4.995e-7
-0.244, 3.221e-7
-0.246, 3.857e-8
-0.248, 4.841e-8
-0.250, 3.408e-7
-0.252, 5.073e-7
-0.254, 3.288e-7
-0.256, 3.959e-8
-0.258, 4.986e-8
-0.260, 3.405e-7
-0.262, 5.029e-7
-0.264, 3.392e-7
-0.266, 5.405e-8
-0.268, 4.582e-8
-0.270, 3.338e-7
-0.272, 5.125e-7
-0.274, 3.488e-7
-0.276, 5.622e-8
-0.278, 4.288e-8
-0.280, 3.382e-7
-0.282, 5.111e-7
-0.284, 3.519e-7
-0.286, 6.933e-8
-0.288, 4.570e-8
-0.290, 3.295e-7
-0.292, 5.138e-7
-0.294, 3.653e-7
-0.296, 7.680e-8
-0.298, 3.547e-8
-0.300, 3.292e-7
-0.302, 5.198e-7
-0.304, 3.656e-7
-0.306, 8.679e-8
-0.308, 4.186e-8
-0.310, 3.223e-7
-0.312, 5.184e-7
-0.314, 3.782e-7
-0.316, 9.839e-8
-0.318, 3.491e-8
-0.320, 3.165e-7
-0.322, 5.261e-7
-0.324, 3.829e-7
-0.326, 1.031e-7
-0.328, 4.000e-8
-0.330, 3.113e-7
-0.332, 5.243e-7
-0.334, 3.926e-7
-0.336, 1.181e-7
-0.338, 3.797e-8
-0.340, 3.017e-7
-0.342, 5.321e-7
-0.344, 4.038e-7
-0.346, 1.193e-7
-0.348, 4.130e-8
-0.350, 2.997e-7
-0.352, 5.322e-7
-0.354, 4.096e-7
-0.356, 1.311e-7
-0.358, 4.649e-8
-0.360, 2.873e-7
-0.362, 5.353e-7
-0.364, 4.256e-7
-0.366, 1.375e-7
-0.368, 4.550e-8
-0.370, 2.843e-7
-0.372, 5.414e-7
-0.374, 4.325e-7
-0.376, 1.440e-7
-0.378, 5.310e-8
-0.380, 2.764e-7
-0.382, 5.381e-7
-0.384, 4.488e-7
-0.386, 1.534e-7
-0.388, 5.174e-8
-0.390, 2.712e-7
-0.392, 5.460e-7
-0.394, 4.599e-7
-0.396, 1.576e-7
-0.398, 5.750e-8
-0.400, 2.720e-7
-0.402, 5.402e-7
-0.404, 4.731e-7
-0.406, 1.722e-7
-0.408, 6.016e-8
-0.410, 2.572e-7
-0.412, 5.445e-7
-0.414, 4.894e-7
-0.416, 1.771e-7
-0.418, 6.261e-8
-0.420, 2.704e-7
-0.422, 5.456e-7
-0.424, 5.000e-7
-0.426, 1.972e-7
-0.428, 7.318e-8
-0.430, 2.708e-7
-0.432, 5.515e-7
-0.434, 5.231e-7
-0.436, 2.163e-7
-0.438, 8.041e-8
-0.440, 2.857e-7
-0.442, 5.688e-7
-0.444, 5.431e-7
-0.446, 2.489e-7
-0.448, 1.104e-7
-0.450, 3.063e-7
-0.452, 5.909e-7
-0.454, 5.873e-7
-0.456, 3.037e-7
-0.458, 1.491e-7
-0.460, 3.489e-7
-0.462, 6.475e-7
-0.464, 6.525e-7
-0.466, 3.777e-7
-0.468, 2.317e-7
-0.470, 4.270e-7
-0.472, 7.277e-7
-0.474, 7.550e-7
-0.476, 4.980e-7
-0.478, 3.478e-7
-0.480, 5.334e-7
-0.482, 8.517e-7
-0.484, 8.990e-7
-0.486, 6.436e-7
-0.488, 4.944e-7
-0.490, 6.821e-7
-0.492, 9.952e-7
-0.494, 1.050e-6
-0.496, 8.048e-7
-0.498, 6.509e-7
-0.500, 8.184e-7
-0.502, 1.124e-6
-0.504, 1.197e-6
-0.506, 9.351e-7
-0.508, 7.604e-7
-0.510, 9.209e-7
-0.512, 1.221e-6
-0.514, 1.274e-6
-0.516, 9.995e-7
-0.518, 8.156e-7
-0.520, 9.549e-7
-0.522, 1.233e-6
-0.524, 1.288e-6
-0.526, 1.003e-6
-0.528, 7.933e-7
-0.530, 9.260e-7
-0.532, 1.204e-6
-0.534, 1.253e-6
-0.536, 9.583e-7
-0.538, 7.438e-7
-0.540, 8.725e-7
-0.542, 1.142e-6
-0.544, 1.201e-6
-0.546, 9.152e-7
-0.548, 6.866e-7
-0.550, 8.113e-7
-0.552, 1.090e-6
-0.554, 1.155e-6
-0.556, 8.650e-7
-0.558, 6.371e-7
-0.560, 7.657e-7
-0.562, 1.038e-6
-0.564, 1.110e-6
-0.566, 8.386e-7
-0.568, 5.994e-7
-0.570, 7.161e-7
-0.572, 9.990e-7
-0.574, 1.083e-6
-0.576, 8.127e-7
-0.578, 5.646e-7
-0.580, 6.866e-7
-0.582, 9.683e-7
-0.584, 1.051e-6
-0.586, 7.985e-7
-0.588, 5.450e-7
-0.590, 6.524e-7
-0.592, 9.400e-7
-0.594, 1.035e-6
-0.596, 7.889e-7
-0.598, 5.200e-7
-0.600, 6.302e-7
-0.602, 9.246e-7
-0.604, 1.012e-6
-0.606, 7.809e-7
-0.608, 5.110e-7
-0.610, 6.069e-7
-0.612, 8.995e-7
-0.614, 9.961e-7
-0.616, 7.770e-7
-0.618, 4.929e-7
-0.620, 5.842e-7
-0.622, 8.925e-7
-0.624, 9.883e-7
-0.626, 7.690e-7
-0.628, 4.920e-7
-0.630, 5.701e-7
-0.632, 8.720e-7
-0.634, 9.776e-7
-0.636, 7.735e-7
-0.638, 4.858e-7
-0.640, 5.479e-7
-0.642, 8.642e-7
-0.644, 9.758e-7
-0.646, 7.656e-7
-0.648, 4.836e-7
-0.650, 5.407e-7
-0.652, 8.488e-7
-0.654, 9.675e-7
-0.656, 7.703e-7
-0.658, 4.843e-7
-0.660, 5.235e-7
-0.662, 8.394e-7
-0.664, 9.705e-7
-0.666, 7.657e-7
-0.668, 4.786e-7
-0.670, 5.241e-7
-0.672, 8.321e-7
-0.674, 9.620e-7
-0.676, 7.704e-7
-0.678, 4.844e-7
-0.680, 5.129e-7
-0.682, 8.223e-7
-0.684, 9.683e-7
-0.686, 7.742e-7
-0.688, 4.804e-7
-0.690, 5.119e-7
-0.692, 8.222e-7
-0.694, 9.661e-7
-0.696, 7.769e-7
-0.698, 4.913e-7
-0.700, 5.101e-7
-0.702, 8.156e-7
-0.704, 9.748e-7
-0.706, 7.898e-7
-0.708, 4.927e-7
-0.710, 5.123e-7
-0.712, 8.227e-7
-0.714, 9.812e-7
-0.716, 7.961e-7
-0.718, 5.111e-7
-0.720, 5.224e-7
-0.722, 8.237e-7
-0.724, 9.948e-7
-0.726, 8.206e-7
-0.728, 5.244e-7
-0.730, 5.314e-7
-0.732, 8.403e-7
-0.734, 1.018e-6
-0.736, 8.406e-7
-0.738, 5.544e-7
-0.740, 5.622e-7
-0.742, 8.610e-7
-0.744, 1.048e-6
-0.746, 8.887e-7
-0.748, 5.996e-7
-0.750, 5.964e-7
-0.752, 9.083e-7
-0.754, 1.109e-6
-0.756, 9.517e-7
-0.758, 6.710e-7
-0.760, 6.766e-7
-0.762, 9.861e-7
-0.764, 1.197e-6
-0.766, 1.070e-6
-0.768, 7.980e-7
-0.770, 7.968e-7
-0.772, 1.125e-6
-0.774, 1.363e-6
-0.776, 1.253e-6
-0.778, 9.969e-7
-0.780, 1.014e-6
-0.782, 1.361e-6
-0.784, 1.616e-6
-0.786, 1.544e-6
-0.788, 1.317e-6
-0.790, 1.336e-6
-0.792, 1.704e-6
-0.794, 1.999e-6
-0.796, 1.959e-6
-0.798, 1.751e-6
-0.800, 1.791e-6
-0.802, 2.182e-6
-0.804, 2.501e-6
-0.806, 2.490e-6
-0.808, 2.318e-6
-0.810, 2.360e-6
-0.812, 2.761e-6
-0.814, 3.118e-6
-0.816, 3.137e-6
-0.818, 2.971e-6
-0.820, 3.015e-6
-0.822, 3.438e-6
-0.824, 3.809e-6
-0.826, 3.839e-6
-0.828, 3.698e-6
-0.830, 3.751e-6
-0.832, 4.164e-6
-0.834, 4.555e-6
-0.836, 4.610e-6
-0.838, 4.463e-6
-0.840, 4.506e-6
-0.842, 4.927e-6
-0.844, 5.321e-6
-0.846, 5.371e-6
-0.848, 5.232e-6
-0.850, 5.272e-6
-0.852, 5.673e-6
-0.854, 6.067e-6
-0.856, 6.127e-6
-0.858, 5.975e-6
-0.860, 5.985e-6
-0.862, 6.386e-6
-0.864, 6.776e-6
-0.866, 6.815e-6
-0.868, 6.650e-6
-0.870, 6.654e-6
-0.872, 7.023e-6
-0.874, 7.389e-6
-0.876, 7.422e-6
-0.878, 7.240e-6
-0.880, 7.203e-6
-0.882, 7.551e-6
-0.884, 7.907e-6
-0.886, 7.904e-6
-0.888, 7.693e-6
-0.890, 7.636e-6
-0.892, 7.948e-6
-0.894, 8.265e-6
-0.896, 8.237e-6
-0.898, 7.998e-6
-0.900, 7.897e-6
-0.902, 8.171e-6
-0.904, 8.467e-6
-0.906, 8.395e-6
-0.908, 8.112e-6
-0.910, 7.988e-6
-0.912, 8.224e-6
-0.914, 8.468e-6
-0.916, 8.359e-6
-0.918, 8.048e-6
-0.920, 7.883e-6
-0.922, 8.077e-6
-0.924, 8.297e-6
-0.926, 8.149e-6
-0.928, 7.793e-6
-0.930, 7.607e-6
-0.932, 7.777e-6
-0.934, 7.957e-6
-0.936, 7.783e-6
-0.938, 7.415e-6
-0.940, 7.211e-6
-0.942, 7.361e-6
-0.944, 7.538e-6
-0.946, 7.354e-6
-0.948, 6.968e-6
-0.950, 6.773e-6
-0.952, 6.933e-6
-0.954, 7.106e-6
-0.956, 6.922e-6
-0.958, 6.556e-6
-0.960, 6.370e-6
-0.962, 6.531e-6
-0.964, 6.724e-6
-0.966, 6.554e-6
-0.968, 6.192e-6
-0.970, 6.021e-6
-0.972, 6.205e-6
-0.974, 6.407e-6
-0.976, 6.243e-6
-0.978, 5.901e-6
-0.980, 5.744e-6
-0.982, 5.927e-6
-0.984, 6.149e-6
-0.986, 6.006e-6
-0.988, 5.662e-6
-0.990, 5.513e-6
-0.992, 5.714e-6
-0.994, 5.946e-6
-0.996, 5.803e-6
-0.998, 5.476e-6
-1.000, 5.343e-6
-1.002, 5.540e-6
-1.004, 5.781e-6
-1.006, 5.662e-6
-1.008, 5.334e-6
-1.010, 5.200e-6
-1.012, 5.410e-6
-1.014, 5.662e-6
-1.016, 5.542e-6
-1.018, 5.221e-6
-1.020, 5.103e-6
-1.022, 5.312e-6
-1.024, 5.555e-6
-1.026, 5.459e-6
-1.028, 5.145e-6
-1.030, 5.020e-6
-1.032, 5.237e-6
-1.034, 5.502e-6
-1.036, 5.397e-6
-1.038, 5.082e-6
-1.040, 4.968e-6
-1.042, 5.184e-6
-1.044, 5.442e-6
-1.046, 5.349e-6
-1.048, 5.042e-6
-1.050, 4.920e-6
-1.052, 5.134e-6
-1.054, 5.408e-6
-1.056, 5.310e-6
-1.058, 4.995e-6
-1.060, 4.883e-6
-1.062, 5.099e-6
-1.064, 5.365e-6
-1.066, 5.271e-6
-1.068, 4.967e-6
-1.070, 4.847e-6
-1.072, 5.056e-6
-1.074, 5.334e-6
-1.076, 5.239e-6
-1.078, 4.926e-6
-1.080, 4.814e-6
-1.082, 5.029e-6
-1.084, 5.297e-6
-1.086, 5.207e-6
-1.088, 4.901e-6
-1.090, 4.786e-6
-1.092, 4.994e-6
-1.094, 5.272e-6
-1.096, 5.189e-6
-1.098, 4.873e-6
-1.100, 4.759e-6
-1.102, 4.977e-6
-1.104, 5.252e-6
-1.106, 5.164e-6
-1.108, 4.859e-6
-1.110, 4.749e-6
-1.112, 4.960e-6
-1.114, 5.238e-6
-1.116, 5.163e-6
-1.118, 4.853e-6
-1.120, 4.735e-6
-1.122, 4.959e-6
-1.124, 5.241e-6
-1.126, 5.161e-6
-1.128, 4.856e-6
-1.130, 4.749e-6
-1.132, 4.965e-6
-1.134, 5.245e-6
-1.136, 5.175e-6
-1.138, 4.871e-6
-1.140, 4.757e-6
-1.142, 4.982e-6
-1.144, 5.271e-6
-1.146, 5.193e-6
-1.148, 4.890e-6
-1.150, 4.790e-6
-1.152, 5.009e-6
-1.154, 5.295e-6
-1.156, 5.228e-6
-1.158, 4.931e-6
-1.160, 4.823e-6
-1.162, 5.045e-6
-1.164, 5.341e-6
-1.166, 5.271e-6
-1.168, 4.967e-6
-1.170, 4.872e-6
-1.172, 5.097e-6
-1.174, 5.384e-6
-1.176, 5.321e-6
-1.178, 5.028e-6
-1.180, 4.922e-6
-1.182, 5.145e-6
-1.184, 5.442e-6
-1.186, 5.379e-6
-1.188, 5.077e-6
-1.190, 4.978e-6
-1.192, 5.209e-6
-1.194, 5.498e-6
-1.196, 5.433e-6
-1.198, 5.144e-6
-1.200, 5.040e-6
-1.202, 5.263e-6
-1.204, 5.560e-6
-1.206, 5.498e-6
-1.208, 5.198e-6
-1.210, 5.098e-6
-1.212, 5.332e-6
-1.214, 5.625e-6
-1.216, 5.555e-6
-1.218, 5.268e-6
-1.220, 5.169e-6
-1.222, 5.393e-6
-1.224, 5.693e-6
-1.226, 5.630e-6
-1.228, 5.332e-6
-1.230, 5.232e-6
-1.232, 5.471e-6
-1.234, 5.768e-6
-1.236, 5.699e-6
-1.238, 5.413e-6
-1.240, 5.322e-6
-1.242, 5.551e-6
-1.244, 5.850e-6
-1.246, 5.792e-6
-1.248, 5.502e-6
-1.250, 5.407e-6
-1.252, 5.647e-6
-1.254, 5.951e-6
-1.256, 5.885e-6
-1.258, 5.600e-6
-1.260, 5.516e-6
-1.262, 5.754e-6
-1.264, 6.053e-6
-1.266, 5.998e-6
-1.268, 5.717e-6
-1.270, 5.625e-6
-1.272, 5.871e-6
-1.274, 6.179e-6
-1.276, 6.117e-6
-1.278, 5.837e-6
-1.280, 5.756e-6
-1.282, 6.004e-6
-1.284, 6.307e-6
-1.286, 6.251e-6
-1.288, 5.981e-6
-1.290, 5.894e-6
-1.292, 6.144e-6
-1.294, 6.458e-6
-1.296, 6.399e-6
-1.298, 6.124e-6
-1.300, 6.047e-6
-1.302, 6.304e-6
-1.304, 6.610e-6
-1.306, 6.553e-6
-1.308, 6.289e-6
-1.310, 6.211e-6
-1.312, 6.464e-6
-1.314, 6.780e-6
-1.316, 6.724e-6
-1.318, 6.453e-6
-1.320, 6.381e-6
-1.322, 6.645e-6
-1.324, 6.953e-6
-1.326, 6.894e-6
-1.328, 6.635e-6
-1.330, 6.562e-6
-1.332, 6.824e-6
-1.334, 7.136e-6
-1.336, 7.083e-6
-1.338, 6.816e-6
-1.340, 6.745e-6
-1.342, 7.017e-6
-1.344, 7.325e-6
-1.346, 7.263e-6
-1.348, 7.008e-6
-1.350, 6.849e-6
-1.348, 6.843e-6
-1.346, 7.005e-6
-1.344, 6.816e-6
-1.342, 6.425e-6
-1.340, 6.230e-6
-1.338, 6.384e-6
-1.336, 6.570e-6
-1.334, 6.389e-6
-1.332, 6.018e-6
-1.330, 5.837e-6
-1.328, 5.993e-6
-1.326, 6.187e-6
-1.324, 6.023e-6
-1.322, 5.658e-6
-1.320, 5.480e-6
-1.318, 5.654e-6
-1.316, 5.855e-6
-1.314, 5.683e-6
-1.312, 5.329e-6
-1.310, 5.167e-6
-1.308, 5.343e-6
-1.306, 5.543e-6
-1.304, 5.384e-6
-1.302, 5.035e-6
-1.300, 4.873e-6
-1.298, 5.058e-6
-1.296, 5.269e-6
-1.294, 5.105e-6
-1.292, 4.760e-6
-1.290, 4.611e-6
-1.288, 4.802e-6
-1.286, 5.005e-6
-1.284, 4.850e-6
-1.282, 4.515e-6
-1.280, 4.364e-6
-1.278, 4.559e-6
-1.276, 4.775e-6
-1.274, 4.618e-6
-1.272, 4.278e-6
-1.270, 4.140e-6
-1.268, 4.345e-6
-1.266, 4.553e-6
-1.264, 4.397e-6
-1.262, 4.070e-6
-1.260, 3.932e-6
-1.258, 4.138e-6
-1.256, 4.352e-6
-1.254, 4.202e-6
-1.252, 3.870e-6
-1.250, 3.737e-6
-1.248, 3.957e-6
-1.246, 4.167e-6
-1.244, 4.011e-6
-1.242, 3.692e-6
-1.240, 3.563e-6
-1.238, 3.781e-6
-1.236, 3.993e-6
-1.234, 3.845e-6
-1.232, 3.521e-6
-1.230, 3.393e-6
-1.228, 3.628e-6
-1.226, 3.838e-6
-1.224, 3.679e-6
-1.222, 3.367e-6
-1.220, 3.246e-6
-1.218, 3.476e-6
-1.216, 3.685e-6
-1.214, 3.537e-6
-1.212, 3.224e-6
-1.210, 3.099e-6
-1.208, 3.338e-6
-1.206, 3.554e-6
-1.204, 3.396e-6
-1.202, 3.083e-6
-1.200, 2.974e-6
-1.198, 3.212e-6
-1.196, 3.420e-6
-1.194, 3.270e-6
-1.192, 2.962e-6
-1.190, 2.847e-6
-1.188, 3.091e-6
-1.186, 3.304e-6
-1.184, 3.152e-6
-1.182, 2.837e-6
-1.180, 2.734e-6
-1.178, 2.987e-6
-1.176, 3.187e-6
-1.174, 3.036e-6
-1.172, 2.734e-6
-1.170, 2.628e-6
-1.168, 2.878e-6
-1.166, 3.087e-6
-1.164, 2.937e-6
-1.162, 2.628e-6
-1.160, 2.526e-6
-1.158, 2.790e-6
-1.156, 2.990e-6
-1.154, 2.835e-6
-1.152, 2.535e-6
-1.150, 2.438e-6
-1.148, 2.695e-6
-1.146, 2.899e-6
-1.144, 2.751e-6
-1.142, 2.444e-6
-1.140, 2.349e-6
-1.138, 2.620e-6
-1.136, 2.820e-6
-1.134, 2.663e-6
-1.132, 2.362e-6
-1.130, 2.277e-6
-1.128, 2.540e-6
-1.126, 2.737e-6
-1.124, 2.590e-6
-1.122, 2.287e-6
-1.120, 2.199e-6
-1.118, 2.471e-6
-1.116, 2.674e-6
-1.114, 2.518e-6
-1.112, 2.213e-6
-1.110, 2.139e-6
-1.108, 2.409e-6
-1.106, 2.603e-6
-1.104, 2.453e-6
-1.102, 2.153e-6
-1.100, 2.073e-6
-1.098, 2.348e-6
-1.096, 2.547e-6
-1.094, 2.394e-6
-1.092, 2.087e-6
-1.090, 2.016e-6
-1.088, 2.297e-6
-1.086, 2.487e-6
-1.084, 2.331e-6
-1.082, 2.034e-6
-1.080, 1.962e-6
-1.078, 2.240e-6
-1.076, 2.435e-6
-1.074, 2.283e-6
-1.072, 1.975e-6
-1.070, 1.908e-6
-1.068, 2.196e-6
-1.066, 2.385e-6
-1.064, 2.223e-6
-1.062, 1.926e-6
-1.060, 1.866e-6
-1.058, 2.144e-6
-1.056, 2.333e-6
-1.054, 2.180e-6
-1.052, 1.877e-6
-1.050, 1.815e-6
-1.048, 2.099e-6
-1.046, 2.290e-6
-1.044, 2.129e-6
-1.042, 1.826e-6
-1.040, 1.777e-6
-1.038, 2.057e-6
-1.036, 2.241e-6
-1.034, 2.087e-6
-1.032, 1.783e-6
-1.030, 1.729e-6
-1.028, 2.012e-6
-1.026, 2.204e-6
-1.024, 2.050e-6
-1.022, 1.735e-6
-1.020, 1.690e-6
-1.018, 1.979e-6
-1.016, 2.158e-6
-1.014, 2.000e-6
-1.012, 1.697e-6
-1.010, 1.651e-6
-1.008, 1.936e-6
-1.006, 2.122e-6
-1.004, 1.963e-6
-1.002, 1.653e-6
-1.000, 1.612e-6
-0.998, 1.907e-6
-0.996, 2.085e-6
-0.994, 1.920e-6
-0.992, 1.619e-6
-0.990, 1.583e-6
-0.988, 1.866e-6
-0.986, 2.049e-6
-0.984, 1.889e-6
-0.982, 1.582e-6
-0.980, 1.544e-6
-0.978, 1.837e-6
-0.976, 2.020e-6
-0.974, 1.847e-6
-0.972, 1.547e-6
-0.970, 1.518e-6
-0.968, 1.801e-6
-0.966, 1.980e-6
-0.964, 1.817e-6
-0.962, 1.512e-6
-0.960, 1.477e-6
-0.958, 1.766e-6
-0.956, 1.950e-6
-0.954, 1.780e-6
-0.952, 1.468e-6
-0.950, 1.444e-6
-0.948, 1.732e-6
-0.946, 1.905e-6
-0.944, 1.736e-6
-0.942, 1.432e-6
-0.940, 1.403e-6
-0.938, 1.684e-6
-0.936, 1.864e-6
-0.934, 1.693e-6
-0.932, 1.377e-6
-0.930, 1.352e-6
-0.928, 1.640e-6
-0.926, 1.810e-6
-0.924, 1.631e-6
-0.922, 1.324e-6
-0.920, 1.294e-6
-0.918, 1.572e-6
-0.916, 1.744e-6
-0.914, 1.573e-6
-0.912, 1.254e-6
-0.910, 1.217e-6
-0.908, 1.500e-6
-0.906, 1.669e-6
-0.904, 1.482e-6
-0.902, 1.168e-6
-0.900, 1.136e-6
-0.898, 1.405e-6
-0.896, 1.568e-6
-0.894, 1.388e-6
-0.892, 1.069e-6
-0.890, 1.023e-6
-0.888, 1.294e-6
-0.886, 1.459e-6
-0.884, 1.266e-6
-0.882, 9.394e-7
-0.880, 9.019e-7
-0.878, 1.166e-6
-0.876, 1.321e-6
-0.874, 1.128e-6
-0.872, 8.015e-7
-0.870, 7.561e-7
-0.868, 1.014e-6
-0.866, 1.172e-6
-0.864, 9.758e-7
-0.862, 6.383e-7
-0.860, 5.955e-7
-0.858, 8.601e-7
-0.856, 1.005e-6
-0.854, 8.030e-7
-0.852, 4.738e-7
-0.850, 4.314e-7
-0.848, 6.873e-7
-0.846, 8.351e-7
-0.844, 6.375e-7
-0.842, 3.019e-7
-0.840, 2.595e-7
-0.838, 5.285e-7
-0.836, 6.731e-7
-0.834, 4.633e-7
-0.832, 1.390e-7
-0.830, 1.078e-7
-0.828, 3.716e-7
-0.826, 5.133e-7
-0.824, 3.152e-7
-0.822, -8.103e-9
-0.820, -3.878e-8
-0.818, 2.406e-7
-0.816, 3.904e-7
-0.814, 1.829e-7
-0.812, -1.379e-7
-0.810, -1.505e-7
-0.808, 1.266e-7
-0.806, 2.710e-7
-0.804, 7.517e-8
-0.802, -2.342e-7
-0.800, -2.486e-7
-0.798, 3.621e-8
-0.796, 1.918e-7
-0.794, -6.141e-9
-0.792, -3.189e-7
-0.790, -3.174e-7
-0.788, -2.178e-8
-0.786, 1.222e-7
-0.784, -7.316e-8
-0.782, -3.697e-7
-0.780, -3.654e-7
-0.778, -7.336e-8
-0.776, 7.956e-8
-0.774, -1.098e-7
-0.772, -4.132e-7
-0.770, -4.033e-7
-0.768, -9.899e-8
-0.766, 4.967e-8
-0.764, -1.467e-7
-0.762, -4.412e-7
-0.760, -4.215e-7
-0.758, -1.223e-7
-0.756, 2.568e-8
-0.754, -1.628e-7
-0.752, -4.571e-7
-0.750, -4.432e-7
-0.748, -1.346e-7
-0.746, 1.581e-8
-0.744, -1.808e-7
-0.742, -4.726e-7
-0.740, -4.474e-7
-0.738, -1.429e-7
-0.736, 5.858e-10
-0.734, -1.901e-7
-0.732, -4.772e-7
-0.730, -4.578e-7
-0.728, -1.534e-7
-0.726, -1.484e-9
-0.724, -1.964e-7
-0.722, -4.906e-7
-0.720, -4.642e-7
-0.718, -1.519e-7
-0.716, -1.341e-8
-0.714, -2.088e-7
-0.712, -4.922e-7
-0.710, -4.646e-7
-0.708, -1.620e-7
-0.706, -1.682e-8
-0.704, -2.057e-7
-0.702, -4.993e-7
-0.700, -4.707e-7
-0.698, -1.586e-7
-0.696, -2.158e-8
-0.694, -2.168e-7
-0.692, -5.029e-7
-0.690, -4.710e-7
-0.688, -1.677e-7
-0.686, -2.863e-8
-0.684, -2.165e-7
-0.682, -5.059e-7
-0.680, -4.817e-7
-0.678, -1.681e-7
-0.676, -2.867e-8
-0.674, -2.265e-7
-0.672, -5.136e-7
-0.670, -4.792e-7
-0.668, -1.703e-7
-0.666, -3.808e-8
-0.664, -2.310e-7
-0.662, -5.117e-7
-0.660, -4.853e-7
-0.658, -1.780e-7
-0.656, -3.621e-8
-0.654, -2.331e-7
-0.652, -5.233e-7
-0.650, -4.870e-7
-0.648, -1.743e-7
-0.646, -4.303e-8
-0.644, -2.409e-7
-0.642, -5.224e-7
-0.640, -4.869e-7
-0.638, -1.817e-7
-0.636, -4.715e-8
-0.634, -2.384e-7
-0.632, -5.289e-7
-0.630, -4.928e-7
-0.628, -1.791e-7
-0.626, -4.668e-8
-0.624, -2.489e-7
-0.622, -5.336e-7
-0.620, -4.904e-7
-0.618, -1.810e-7
-0.616, -5.533e-8
-0.614, -2.397e-7
-0.612, -5.319e-7
-0.610, -4.973e-7
-0.608, -1.825e-7
-0.606, -5.153e-8
-0.604, -2.516e-7
-0.602, -5.406e-7
-0.600, -4.962e-7
-0.598, -1.804e-7
-0.596, -5.960e-8
-0.594, -2.572e-7
-0.592, -5.386e-7
-0.590, -4.992e-7
-0.588, -1.888e-7
-0.586, -5.967e-8
-0.584, -2.591e-7
-0.582, -5.472e-7
-0.580, -5.050e-7
-0.578, -1.872e-7
-0.576, -6.646e-8
-0.574, -2.690e-7
-0.572, -5.512e-7
-0.570, -5.053e-7
-0.568, -1.978e-7
-0.566, -7.449e-8
-0.564, -2.709e-7
-0.562, -5.597e-7
-0.560, -5.185e-7
-0.558, -2.051e-7
-0.556, -8.112e-8
-0.554, -2.875e-7
-0.552, -5.773e-7
-0.550, -5.271e-7
-0.548, -2.200e-7
-0.546, -1.060e-7
-0.544, -3.059e-7
-0.542, -5.939e-7
-0.540, -5.544e-7
-0.538, -2.498e-7
-0.536, -1.314e-7
-0.534, -3.372e-7
-0.532, -6.357e-7
-0.530, -5.930e-7
-0.528, -2.892e-7
-0.526, -1.841e-7
-0.524, -3.941e-7
-0.522, -6.874e-7
-0.520, -6.554e-7
-0.518, -3.651e-7
-0.516, -2.583e-7
-0.514, -4.665e-7
-0.512, -7.771e-7
-0.510, -7.535e-7
-0.508, -4.612e-7
-0.506, -3.599e-7
-0.504, -5.813e-7
-0.502, -8.870e-7
-0.500, -8.657e-7
-0.498, -5.896e-7
-0.496, -4.934e-7
-0.494, -7.058e-7
-0.492, -1.014e-6
-0.490, -1.003e-6
-0.488, -7.237e-7
-0.486, -6.176e-7
-0.484, -8.328e-7
-0.482, -1.140e-6
-0.480, -1.111e-6
-0.478, -8.245e-7
-0.476, -7.192e-7
-0.474, -9.226e-7
-0.472, -1.214e-6
-0.470, -1.176e-6
-0.468, -8.780e-7
-0.466, -7.543e-7
-0.464, -9.466e-7
-0.462, -1.236e-6
-0.460, -1.178e-6
-0.458, -8.621e-7
-0.456, -7.410e-7
-0.454, -9.314e-7
-0.452, -1.206e-6
-0.450, -1.141e-6
-0.448, -8.260e-7
-0.446, -6.995e-7
-0.444, -8.851e-7
-0.442, -1.164e-6
-0.440, -1.100e-6
-0.438, -7.747e-7
-0.436, -6.515e-7
-0.434, -8.500e-7
-0.432, -1.126e-6
-0.430, -1.053e-6
-0.428, -7.379e-7
-0.426, -6.213e-7
-0.424, -8.152e-7
-0.422, -1.092e-6
-0.420, -1.028e-6
-0.418, -7.121e-7
-0.416, -5.921e-7
-0.414, -7.943e-7
-0.412, -1.077e-6
-0.410, -9.990e-7
-0.408, -6.883e-7
-0.406, -5.796e-7
-0.404, -7.811e-7
-0.402, -1.060e-6
-0.400, -9.921e-7
-0.398, -6.857e-7
-0.396, -5.683e-7
-0.394, -7.706e-7
-0.392, -1.060e-6
-0.390, -9.915e-7
-0.388, -6.765e-7
-0.386, -5.657e-7
-0.384, -7.756e-7
-0.382, -1.057e-6
-0.380, -9.842e-7
-0.378, -6.797e-7
-0.376, -5.715e-7
-0.374, -7.711e-7
-0.372, -1.060e-6
-0.370, -9.918e-7
-0.368, -6.781e-7
-0.366, -5.686e-7
-0.364, -7.797e-7
-0.362, -1.063e-6
-0.360, -9.883e-7
-0.358, -6.795e-7
-0.356, -5.744e-7
-0.354, -7.777e-7
-0.352, -1.059e-6
-0.350, -9.907e-7
-0.348, -6.809e-7
-0.346, -5.670e-7
-0.344, -7.773e-7
-0.342, -1.061e-6
-0.340, -9.851e-7
-0.338, -6.716e-7
-0.336, -5.664e-7
-0.334, -7.752e-7
-0.332, -1.049e-6
-0.330, -9.759e-7
-0.328, -6.702e-7
-0.326, -5.561e-7
-0.324, -7.598e-7
-0.322, -1.046e-6
-0.320, -9.700e-7
-0.318, -6.530e-7
-0.316, -5.442e-7
-0.314, -7.553e-7
-0.312, -1.034e-6
-0.310, -9.506e-7
-0.308, -6.464e-7
-0.306, -5.366e-7
-0.304, -7.376e-7
-0.302, -1.021e-6
-0.300, -9.437e-7
-0.298, -6.293e-7
-0.296, -5.185e-7
-0.294, -7.294e-7
-0.292, -1.011e-6
-0.290, -9.245e-7
-0.288, -6.160e-7
-0.286, -5.120e-7
-0.284, -7.144e-7
-0.282, -9.917e-7
-0.280, -9.162e-7
-0.278, -6.065e-7
-0.276, -4.926e-7
-0.274, -7.021e-7
-0.272, -9.878e-7
-0.270, -9.036e-7
-0.268, -5.892e-7
-0.266, -4.857e-7
-0.264, -6.969e-7
-0.262, -9.699e-7
-0.260, -8.910e-7
-0.258, -5.863e-7
-0.256, -4.741e-7
-0.254, -6.823e-7
-0.252, -9.657e-7
-0.250, -8.843e-7
-0.248, -5.709e-7
-0.246, -4.634e-7
-0.244, -6.781e-7
-0.242, -9.558e-7
-0.240, -8.696e-7
-0.238, -5.669e-7
-0.236, -4.599e-7
-0.234, -6.654e-7
-0.232, -9.477e-7
-0.230, -8.673e-7
-0.228, -5.575e-7
-0.226, -4.477e-7
-0.224, -6.626e-7
-0.222, -9.446e-7
-0.220, -8.557e-7
-0.218, -5.488e-7
-0.216, -4.479e-7
-0.214, -6.550e-7
-0.212, -9.327e-7
-0.210, -8.530e-7
-0.208, -5.455e-7
-0.206, -4.362e-7
-0.204, -6.432e-7
-0.202, -9.339e-7
-0.200, -8.465e-7
-0.198, -5.347e-7
-0.196, -4.345e-7
-0.194, -6.488e-7
-0.192, -9.241e-7
-0.190, -8.406e-7
-0.188, -5.367e-7
-0.186, -4.291e-7
-0.184, -6.406e-7
-0.182, -9.217e-7
-0.180, -8.392e-7
-0.178, -5.289e-7
-0.176, -4.241e-7
-0.174, -6.434e-7
-0.172, -9.189e-7
-0.170, -8.297e-7
-0.168, -5.300e-7
-0.166, -4.250e-7
-0.164, -6.351e-7
-0.162, -9.155e-7
-0.160, -8.333e-7
-0.158, -5.266e-7
-0.156, -4.167e-7
-0.154, -6.360e-7
-0.152, -9.179e-7
-0.150, -8.255e-7
-0.148, -5.213e-7
-0.146, -4.232e-7
-0.144, -6.362e-7
-0.142, -9.112e-7
-0.140, -8.281e-7
-0.138, -5.254e-7
-0.136, -4.190e-7
-0.134, -6.332e-7
-0.132, -9.178e-7
-0.130, -8.285e-7
-0.128, -5.202e-7
-0.126, -4.216e-7
-0.124, -6.395e-7
-0.122, -9.136e-7
-0.120, -8.271e-7
-0.118, -5.287e-7
-0.116, -4.235e-7
-0.114, -6.371e-7
-0.112, -9.196e-7
-0.110, -8.339e-7
-0.108, -5.255e-7
-0.106, -4.240e-7
-0.104, -6.473e-7
-0.102, -9.257e-7
-0.100, -8.322e-7
-0.098, -5.340e-7
-0.096, -4.344e-7
-0.094, -6.495e-7
-0.092, -9.258e-7
-0.090, -8.435e-7
-0.088, -5.412e-7
-0.086, -4.355e-7
-0.084, -6.588e-7
-0.082, -9.391e-7
-0.080, -8.473e-7
-0.078, -5.459e-7
-0.076, -4.507e-7
-0.074, -6.687e-7
-0.072, -9.439e-7
-0.070, -8.585e-7
-0.068, -5.624e-7
-0.066, -4.599e-7
-0.064, -6.793e-7
-0.062, -9.628e-7
-0.060, -8.723e-7
-0.058, -5.702e-7
-0.056, -4.762e-7
-0.054, -6.977e-7
-0.052, -9.737e-7
-0.050, -8.861e-7
-0.048, -5.930e-7
-0.046, -4.963e-7
-0.044, -7.125e-7
-0.042, -9.953e-7
-0.040, -9.133e-7
-0.038, -6.106e-7
-0.036, -5.153e-7
-0.034, -7.424e-7
-0.032, -1.021e-6
-0.030, -9.325e-7
-0.028, -6.396e-7
-0.026, -5.485e-7
-0.024, -7.692e-7
-0.022, -1.047e-6
-0.020, -9.692e-7
-0.018, -6.744e-7
-0.016, -5.768e-7
-0.014, -8.054e-7
-0.012, -1.089e-6
-0.010, -1.003e-6
-0.008, -7.110e-7
-0.006, -6.234e-7
-0.004, -8.510e-7
-0.002, -1.128e-6
-0.001, -6.442e-7